label,trials,offset,keys,direction,response_time,accuracy,response_numeric
Block 1: Binocular_Standard,0,0.15,right,right,0.7857220870000674,correct,1
Block 1: Binocular_Standard,1,-0.15,left,left,0.4758006250001472,correct,1
Block 1: Binocular_Standard,2,-0.15,left,left,0.5262915329999487,correct,1
Block 1: Binocular_Standard,3,-0.13999999999999999,left,left,0.4758269639999071,correct,1
Block 1: Binocular_Standard,4,0.15,right,right,0.4548903209999935,correct,1
Block 1: Binocular_Standard,5,0.13999999999999999,right,right,0.48617345699994985,correct,1
Block 1: Binocular_Standard,6,-0.13999999999999999,left,left,0.5782128430000739,correct,1
Block 1: Binocular_Standard,7,0.13999999999999999,right,right,1.0536228330001904,correct,1
Block 1: Binocular_Standard,8,-0.12999999999999998,left,left,0.5167004719999113,correct,1
Block 1: Binocular_Standard,9,0.12999999999999998,right,right,1.4571869850001349,correct,1
Block 1: Binocular_Standard,10,0.12999999999999998,right,right,1.4133425190000253,correct,1
Block 1: Binocular_Standard,11,-0.12999999999999998,left,left,1.1887040180001804,correct,1
Block 1: Binocular_Standard,12,0.11999999999999998,right,right,0.5780560539999442,correct,1
Block 1: Binocular_Standard,13,0.11999999999999998,right,right,1.0971234339999683,correct,1
Block 1: Binocular_Standard,14,0.10999999999999999,right,right,0.863176889999977,correct,1
Block 1: Binocular_Standard,15,0.10999999999999999,right,right,0.8327350080000997,correct,1
Block 1: Binocular_Standard,16,0.09999999999999999,right,right,0.5484955930000979,correct,1
Block 1: Binocular_Standard,17,0.09999999999999999,right,right,0.5394888410000931,correct,1
Block 1: Binocular_Standard,18,0.09,right,right,1.2701732499999707,correct,1
Block 1: Binocular_Standard,19,-0.11999999999999998,left,left,0.7419970859998557,correct,1
Block 1: Binocular_Standard,20,0.09,right,right,0.9046848909999881,correct,1
Block 1: Binocular_Standard,21,0.08,right,right,0.7591311979999773,correct,1
Block 1: Binocular_Standard,22,-0.11999999999999998,left,left,0.4859280350001427,correct,1
Block 1: Binocular_Standard,23,0.08,right,right,1.396730886000114,correct,1
Block 1: Binocular_Standard,24,-0.10999999999999999,left,left,0.6075234539998746,correct,1
Block 1: Binocular_Standard,25,0.07,right,right,1.0638035309998486,correct,1
Block 1: Binocular_Standard,26,0.07,right,right,0.4857172609999907,correct,1
Block 1: Binocular_Standard,27,-0.10999999999999999,right,left,0.9012525449998066,false,0
Block 1: Binocular_Standard,28,0.060000000000000005,left,right,0.5668392740001309,false,0
Block 1: Binocular_Standard,29,-0.11999999999999998,left,left,1.3965405310000278,correct,1
Block 1: Binocular_Standard,30,-0.11999999999999998,left,left,0.5061414649999278,correct,1
Block 1: Binocular_Standard,31,0.07,right,right,0.476365843999929,correct,1
Block 1: Binocular_Standard,32,0.07,right,right,0.9618052470000293,correct,1
Block 1: Binocular_Standard,33,-0.10999999999999999,left,left,1.2553446189999704,correct,1
Block 1: Binocular_Standard,34,-0.10999999999999999,left,left,0.627832054999999,correct,1
Block 1: Binocular_Standard,35,-0.09999999999999999,left,left,0.5268156590000217,correct,1
Block 1: Binocular_Standard,36,-0.09999999999999999,left,left,0.7391052880000188,correct,1
Block 1: Binocular_Standard,37,0.060000000000000005,right,right,0.7894442379999873,correct,1
Block 1: Binocular_Standard,38,0.060000000000000005,right,right,0.4151984340001036,correct,1
Block 1: Binocular_Standard,39,-0.09,left,left,0.45570083999996314,correct,1
Block 1: Binocular_Standard,40,-0.09,left,left,0.415546046000145,correct,1
Block 1: Binocular_Standard,41,0.05,right,right,0.47584146200006217,correct,1
Block 1: Binocular_Standard,42,0.05,right,right,0.5567396689998532,correct,1
Block 1: Binocular_Standard,43,-0.08,left,left,0.5059085249999953,correct,1
Block 1: Binocular_Standard,44,0.04,right,right,0.4450291539999398,correct,1
Block 1: Binocular_Standard,45,0.04,right,right,0.39472655099984877,correct,1
Block 1: Binocular_Standard,46,0.03,right,right,0.9018190649999269,correct,1
Block 1: Binocular_Standard,47,-0.08,left,left,0.41486061299997345,correct,1
Block 1: Binocular_Standard,48,0.03,right,right,0.6578068810001696,correct,1
Block 1: Binocular_Standard,49,-0.07,left,left,0.5263229300001058,correct,1
Block 1: Binocular_Standard,50,-0.07,left,left,0.5164263760000267,correct,1
Block 1: Binocular_Standard,51,-0.060000000000000005,left,left,0.6376623280000331,correct,1
Block 1: Binocular_Standard,52,-0.060000000000000005,left,left,0.45519024800000807,correct,1
Block 1: Binocular_Standard,53,0.019999999999999997,right,right,0.9919090959999721,correct,1
Block 1: Binocular_Standard,54,-0.05,left,left,0.6682778580000104,correct,1
Block 1: Binocular_Standard,55,0.019999999999999997,right,right,0.4457385439998234,correct,1
Block 1: Binocular_Standard,56,-0.05,left,left,0.47560757699989153,correct,1
Block 1: Binocular_Standard,57,0.009999999999999997,left,right,0.8708772200000112,false,0
Block 1: Binocular_Standard,58,-0.04,left,left,0.627294744999972,correct,1
Block 1: Binocular_Standard,59,-0.04,left,left,1.2762791289999313,correct,1
Block 1: Binocular_Standard,60,0.019999999999999997,right,right,0.5057131889998345,correct,1
Block 1: Binocular_Standard,61,0.019999999999999997,right,right,0.6572739620000903,correct,1
Block 1: Binocular_Standard,62,0.009999999999999997,right,right,1.539056933999973,correct,1
Block 1: Binocular_Standard,63,-0.03,left,left,0.4857549799999106,correct,1
Block 1: Binocular_Standard,64,-0.03,left,left,0.5777511220001088,correct,1
Block 1: Binocular_Standard,65,0.009999999999999997,left,right,0.6591282070000943,false,0
Block 1: Binocular_Standard,66,-0.019999999999999997,left,left,0.9923415490000025,correct,1
Block 1: Binocular_Standard,67,0.019999999999999997,left,right,0.9209978839999167,false,0
Block 1: Binocular_Standard,68,0.03,right,right,0.5059017879998464,correct,1
Block 1: Binocular_Standard,69,0.03,right,right,0.5362274579999848,correct,1
Block 1: Binocular_Standard,70,0.019999999999999997,right,right,1.3774009359999582,correct,1
Block 1: Binocular_Standard,71,0.019999999999999997,right,right,1.4576002440001048,correct,1
Block 1: Binocular_Standard,72,-0.019999999999999997,left,left,0.5157859580001514,correct,1
Block 1: Binocular_Standard,73,-0.009999999999999997,left,left,0.6374993679999079,correct,1
Block 1: Binocular_Standard,74,0.009999999999999997,left,right,1.0832365659998686,false,0
Block 1: Binocular_Standard,75,-0.009999999999999997,left,left,0.850778549999859,correct,1
Block 1: Binocular_Standard,76,0.019999999999999997,right,right,0.5362476410000454,correct,1
Block 1: Binocular_Standard,77,3.469446951953614e-18,left,left,0.5470271909998701,correct,1
Block 1: Binocular_Standard,78,0.019999999999999997,left,right,0.4551083409999137,false,0
Block 1: Binocular_Standard,79,3.469446951953614e-18,right,left,0.8000160270000833,false,0
Block 1: Binocular_Standard,80,0.03,right,right,1.21528800100009,correct,1
Block 1: Binocular_Standard,81,-0.009999999999999997,left,left,1.0326059280000663,correct,1
Block 1: Binocular_Standard,82,0.03,right,right,0.10069679899993389,correct,1
Block 1: Binocular_Standard,83,-0.009999999999999997,left,left,0.7899262799999178,correct,1
Block 1: Binocular_Standard,84,0.019999999999999997,right,right,1.4080439439999282,correct,1
Block 1: Binocular_Standard,85,0.019999999999999997,left,right,1.1338950550002664,false,0
Block 1: Binocular_Standard,86,3.469446951953614e-18,right,left,1.0334266159998151,false,0
Block 1: Binocular_Standard,87,-0.009999999999999997,left,left,0.8301202190000367,correct,1
Block 1: Binocular_Standard,88,0.03,right,right,0.9013016419999076,correct,1
Block 1: Binocular_Standard,89,-0.009999999999999997,left,left,0.961281500000041,correct,1
Block 1: Binocular_Standard,90,0.03,right,right,0.588208515000133,correct,1
Block 1: Binocular_Standard,91,3.469446951953614e-18,right,left,0.880603501999758,false,0
Block 1: Binocular_Standard,92,-0.009999999999999997,left,left,0.5564797880001606,correct,1
Block 1: Binocular_Standard,93,0.019999999999999997,right,right,0.8604146279999441,correct,1
Block 1: Binocular_Standard,94,0.019999999999999997,right,right,0.6681442600001901,correct,1
Block 1: Binocular_Standard,95,0.009999999999999997,right,right,0.8302345689999129,correct,1
Block 1: Binocular_Standard,96,-0.009999999999999997,right,left,0.5977096539995728,false,0
Block 1: Binocular_Standard,97,-0.019999999999999997,left,left,0.43468879200008814,correct,1
Block 1: Binocular_Standard,98,0.009999999999999997,right,right,0.678026673000204,correct,1
Block 1: Binocular_Standard,99,-3.469446951953614e-18,right,right,0.9411537679998219,correct,1
Block 1: Binocular_Standard,100,-0.019999999999999997,left,left,0.4652982920001705,correct,1
Block 1: Binocular_Standard,101,-3.469446951953614e-18,left,right,0.8604863129999103,false,0
Block 1: Binocular_Standard,102,-0.009999999999999997,right,left,0.394816229999833,false,0
Block 1: Binocular_Standard,103,0.009999999999999997,left,right,0.647398112999781,false,0
Block 1: Binocular_Standard,104,0.019999999999999997,right,right,1.2549658240000099,correct,1
Block 1: Binocular_Standard,105,-0.019999999999999997,left,left,0.759411646999979,correct,1
Block 1: Binocular_Standard,106,-0.019999999999999997,left,left,1.144037692999973,correct,1
Block 1: Binocular_Standard,107,-0.009999999999999997,right,left,0.982528758999706,false,0
Block 1: Binocular_Standard,108,0.019999999999999997,left,right,0.6188223589997506,false,0
Block 1: Binocular_Standard,109,0.03,right,right,0.5770224439997946,correct,1
Block 1: Binocular_Standard,110,-0.019999999999999997,left,left,0.6987820670001383,correct,1
Block 1: Binocular_Standard,111,0.03,right,right,0.7389448280000579,correct,1
Block 1: Binocular_Standard,112,0.019999999999999997,left,right,0.9316820109997934,false,0
Block 1: Binocular_Standard,113,-0.019999999999999997,right,left,1.1951672700001836,false,0
Block 1: Binocular_Standard,114,-0.03,left,left,0.6383033709998926,correct,1
Block 1: Binocular_Standard,115,-0.03,left,left,0.5663335639997058,correct,1
Block 1: Binocular_Standard,116,-0.019999999999999997,left,left,0.9114356820000467,correct,1
Block 1: Binocular_Standard,117,0.03,right,right,1.1337976649997472,correct,1
Block 1: Binocular_Standard,118,0.03,right,right,1.4787371000002167,correct,1
Block 1: Binocular_Standard,119,0.019999999999999997,left,right,1.0026408909998281,false,0
Block 1: Binocular_Standard,120,-0.019999999999999997,left,left,0.7290888040001846,correct,1
Block 1: Binocular_Standard,121,-0.009999999999999997,left,left,0.9925239330000295,correct,1
Block 1: Binocular_Standard,122,0.03,right,right,0.4854734619998453,correct,1
Block 1: Binocular_Standard,123,-0.009999999999999997,left,left,0.5571900820000337,correct,1
Block 1: Binocular_Standard,124,3.469446951953614e-18,left,left,0.617359899999883,correct,1
Block 1: Binocular_Standard,125,0.03,right,right,0.5157798479999656,correct,1
Block 1: Binocular_Standard,126,0.019999999999999997,right,right,0.6073429369998848,correct,1
Block 1: Binocular_Standard,127,3.469446951953614e-18,right,left,0.6070194720000472,false,0
Block 1: Binocular_Standard,128,-0.009999999999999997,left,left,0.3138991650002936,correct,1
Block 1: Binocular_Standard,129,0.019999999999999997,right,right,0.9620431630000894,correct,1
Block 1: Binocular_Standard,130,-0.009999999999999997,left,left,0.9820920839997598,correct,1
Block 1: Binocular_Standard,131,0.009999999999999997,right,right,0.6073255659998722,correct,1
Block 1: Binocular_Standard,132,3.469446951953614e-18,left,left,0.5161815510000451,correct,1
Block 1: Binocular_Standard,133,0.009999999999999997,left,right,0.8704514989999552,false,0
Block 1: Binocular_Standard,134,0.019999999999999997,right,right,0.9106941690001804,correct,1
Block 1: Binocular_Standard,135,3.469446951953614e-18,left,left,0.9430027260000315,correct,1
Block 1: Binocular_Standard,136,0.010000000000000004,right,left,0.6180400819998795,false,0
Block 1: Binocular_Standard,137,3.469446951953614e-18,left,left,0.6383032510002522,correct,1
Block 1: Binocular_Standard,138,0.019999999999999997,left,right,1.2753771810002945,false,0
Block 1: Binocular_Standard,139,0.03,right,right,0.49542728599999464,correct,1
Block 1: Binocular_Standard,140,0.03,right,right,1.3061757800001033,correct,1
Block 1: Binocular_Standard,141,3.469446951953614e-18,right,left,0.9515711089998149,false,0
Block 1: Binocular_Standard,142,0.019999999999999997,right,right,0.7389017929999682,correct,1
Block 1: Binocular_Standard,143,0.019999999999999997,right,right,0.7896959300001072,correct,1
Block 1: Binocular_Standard,144,0.009999999999999997,right,right,0.7292641750000257,correct,1
Block 1: Binocular_Standard,145,-0.009999999999999997,right,left,1.1542472520000047,false,0
Block 1: Binocular_Standard,146,-0.019999999999999997,left,left,0.6083798889999343,correct,1
Block 1: Binocular_Standard,147,-0.019999999999999997,left,left,0.7393289179999556,correct,1
Block 1: Binocular_Standard,148,-0.009999999999999997,left,left,0.4656897099998787,correct,1
Block 1: Binocular_Standard,149,-0.009999999999999997,left,left,0.41579762600031245,correct,1
Block 1: Binocular_Standard,150,3.469446951953614e-18,left,left,0.5569091950001166,correct,1
Block 1: Binocular_Standard,151,3.469446951953614e-18,left,left,1.2655481520000649,correct,1
Block 1: Binocular_Standard,152,0.009999999999999997,right,right,1.03324869700009,correct,1
Block 1: Binocular_Standard,153,-3.469446951953614e-18,right,right,2.087120684999718,correct,1
Block 1: Binocular_Standard,154,0.010000000000000004,right,left,0.9620455680001214,false,0
Block 1: Binocular_Standard,155,3.469446951953614e-18,left,left,1.1339556939997237,correct,1
Block 1: Binocular_Standard,156,-3.469446951953614e-18,left,right,1.1341346419999354,false,0
Block 1: Binocular_Standard,157,0.009999999999999997,right,right,0.9009924550000505,correct,1
Block 1: Binocular_Standard,158,3.469446951953614e-18,left,left,0.6882921410001472,correct,1
Block 1: Binocular_Standard,159,0.009999999999999997,left,right,0.9317699930002163,false,0
Block 1: Binocular_Standard,160,0.010000000000000004,left,left,0.7796450900000309,correct,1
Block 1: Binocular_Standard,161,0.010000000000000004,right,left,0.861744372999965,false,0
Block 1: Binocular_Standard,162,3.469446951953614e-18,left,left,0.830803423999896,correct,1
Block 1: Binocular_Standard,163,0.019999999999999997,right,right,0.860290022999834,correct,1
Block 1: Binocular_Standard,164,3.469446951953614e-18,left,left,0.8909859380000853,correct,1
Block 1: Binocular_Standard,165,0.019999999999999997,left,right,0.8504917340001157,false,0
Block 1: Binocular_Standard,166,0.010000000000000004,right,left,0.45547135200013145,false,0
Block 1: Binocular_Standard,167,3.469446951953614e-18,left,left,0.850399469000422,correct,1
Block 1: Binocular_Standard,168,3.469446951953614e-18,left,left,1.1340858919998027,correct,1
Block 1: Binocular_Standard,169,0.010000000000000004,right,left,1.2146104299999934,false,0
Block 2: Binocular_Crowded,0,-0.15,left,left,1.3064141260001634,correct,1
Block 2: Binocular_Crowded,1,0.15,right,right,0.6375208470003599,correct,1
Block 2: Binocular_Crowded,2,-0.15,left,left,0.6274406620000264,correct,1
Block 2: Binocular_Crowded,3,-0.13999999999999999,left,left,0.6478426319999926,correct,1
Block 2: Binocular_Crowded,4,-0.13999999999999999,left,left,0.637862590000168,correct,1
Block 2: Binocular_Crowded,5,-0.12999999999999998,left,left,0.586853728999813,correct,1
Block 2: Binocular_Crowded,6,0.15,left,right,0.9413626239997939,false,0
Block 2: Binocular_Crowded,7,-0.12999999999999998,left,left,0.6581906390001677,correct,1
Block 2: Binocular_Crowded,8,-0.11999999999999998,left,left,0.8103412800001024,correct,1
Block 2: Binocular_Crowded,9,0.16,right,right,0.6487416589998247,correct,1
Block 2: Binocular_Crowded,10,0.16,right,right,0.829678063999836,correct,1
Block 2: Binocular_Crowded,11,-0.11999999999999998,right,left,2.5928845500002353,false,0
Block 2: Binocular_Crowded,12,-0.12999999999999998,left,left,0.6081027939999331,correct,1
Block 2: Binocular_Crowded,13,0.15,right,right,0.6172990680001931,correct,1
Block 2: Binocular_Crowded,14,0.15,right,right,1.0731903890000467,correct,1
Block 2: Binocular_Crowded,15,0.13999999999999999,right,right,0.5675229510002282,correct,1
Block 2: Binocular_Crowded,16,0.13999999999999999,right,right,1.6099227109998537,correct,1
Block 2: Binocular_Crowded,17,-0.12999999999999998,left,left,0.5477540769998086,correct,1
Block 2: Binocular_Crowded,18,0.12999999999999998,right,right,0.5461530570000832,correct,1
Block 2: Binocular_Crowded,19,-0.11999999999999998,left,left,0.5770859210001618,correct,1
Block 2: Binocular_Crowded,20,-0.11999999999999998,left,left,0.6682178910000403,correct,1
Block 2: Binocular_Crowded,21,-0.10999999999999999,left,left,0.77001708600028,correct,1
Block 2: Binocular_Crowded,22,0.12999999999999998,right,right,0.7079677030001221,correct,1
Block 2: Binocular_Crowded,23,-0.10999999999999999,left,left,0.6072514009997576,correct,1
Block 2: Binocular_Crowded,24,-0.09999999999999999,left,left,0.7592021469999963,correct,1
Block 2: Binocular_Crowded,25,0.11999999999999998,left,right,0.76949587099989,false,0
Block 2: Binocular_Crowded,26,-0.09999999999999999,right,left,0.5062992769999255,false,0
Block 2: Binocular_Crowded,27,0.12999999999999998,right,right,0.6881118019996393,correct,1
Block 2: Binocular_Crowded,28,0.12999999999999998,right,right,0.8913130369996907,correct,1
Block 2: Binocular_Crowded,29,0.11999999999999998,right,right,0.5882346099997449,correct,1
Block 2: Binocular_Crowded,30,-0.10999999999999999,left,left,0.6985561620003864,correct,1
Block 2: Binocular_Crowded,31,-0.10999999999999999,left,left,0.5773695989996668,correct,1
Block 2: Binocular_Crowded,32,-0.09999999999999999,left,left,0.8194134820000727,correct,1
Block 2: Binocular_Crowded,33,0.11999999999999998,right,right,0.8403902069999276,correct,1
Block 2: Binocular_Crowded,34,0.10999999999999999,right,right,0.8101057339999898,correct,1
Block 2: Binocular_Crowded,35,0.10999999999999999,right,right,0.7096311830000559,correct,1
Block 2: Binocular_Crowded,36,0.09999999999999999,right,right,0.6879399169997669,correct,1
Block 2: Binocular_Crowded,37,0.09999999999999999,right,right,1.0927605829997447,correct,1
Block 2: Binocular_Crowded,38,0.09,left,right,0.6476187090001986,false,0
Block 2: Binocular_Crowded,39,0.09999999999999999,right,right,0.4454340380002577,correct,1
Block 2: Binocular_Crowded,40,-0.09999999999999999,left,left,0.6677874950000842,correct,1
Block 2: Binocular_Crowded,41,-0.09,left,left,0.5979409850001502,correct,1
Block 2: Binocular_Crowded,42,-0.09,left,left,0.7998722420002196,correct,1
Block 2: Binocular_Crowded,43,-0.08,left,left,0.728908911000417,correct,1
Block 2: Binocular_Crowded,44,0.09999999999999999,right,right,0.6478416610002569,correct,1
Block 2: Binocular_Crowded,45,-0.08,left,left,0.8201831989999846,correct,1
Block 2: Binocular_Crowded,46,-0.07,left,left,0.7187561619998633,correct,1
Block 2: Binocular_Crowded,47,0.09,left,right,0.6679412280000179,false,0
Block 2: Binocular_Crowded,48,0.09999999999999999,right,right,0.5063470250001956,correct,1
Block 2: Binocular_Crowded,49,-0.07,left,left,0.45573630499984574,correct,1
Block 2: Binocular_Crowded,50,0.09999999999999999,left,right,1.6307223530002375,false,0
Block 2: Binocular_Crowded,51,0.10999999999999999,right,right,0.4050659140002608,correct,1
Block 2: Binocular_Crowded,52,0.10999999999999999,right,right,0.6478499370000463,correct,1
Block 2: Binocular_Crowded,53,-0.060000000000000005,left,left,0.5364877209999577,correct,1
Block 2: Binocular_Crowded,54,0.09999999999999999,right,right,0.6474361090004095,correct,1
Block 2: Binocular_Crowded,55,0.09999999999999999,right,right,0.536535535999974,correct,1
Block 2: Binocular_Crowded,56,-0.060000000000000005,left,left,1.0121407859996907,correct,1
Block 2: Binocular_Crowded,57,-0.05,left,left,1.144179790999715,correct,1
Block 2: Binocular_Crowded,58,-0.05,left,left,0.8196917020000001,correct,1
Block 2: Binocular_Crowded,59,-0.04,left,left,1.0125671730002068,correct,1
Block 2: Binocular_Crowded,60,0.09,right,right,0.8912559450000117,correct,1
Block 2: Binocular_Crowded,61,0.09,right,right,0.7290337579997868,correct,1
Block 2: Binocular_Crowded,62,0.08,right,right,0.9003154550000545,correct,1
Block 2: Binocular_Crowded,63,0.08,right,right,0.6279339919997255,correct,1
Block 2: Binocular_Crowded,64,-0.04,left,left,0.8912239380001665,correct,1
Block 2: Binocular_Crowded,65,-0.03,left,left,1.0933160889999272,correct,1
Block 2: Binocular_Crowded,66,-0.03,left,left,0.4855828009999641,correct,1
Block 2: Binocular_Crowded,67,0.07,right,right,0.7895866009998826,correct,1
Block 2: Binocular_Crowded,68,-0.019999999999999997,left,left,0.9516235129999586,correct,1
Block 2: Binocular_Crowded,69,0.07,right,right,0.9216483010000047,correct,1
Block 2: Binocular_Crowded,70,0.060000000000000005,left,right,0.7692824770001607,false,0
Block 2: Binocular_Crowded,71,0.07,right,right,0.4552020660003109,correct,1
Block 2: Binocular_Crowded,72,-0.019999999999999997,right,left,0.6378694979998727,false,0
Block 2: Binocular_Crowded,73,0.07,right,right,0.7999873710000429,correct,1
Block 2: Binocular_Crowded,74,-0.03,left,left,0.5870143170000119,correct,1
Block 2: Binocular_Crowded,75,-0.03,left,left,0.5559947679998913,correct,1
Block 2: Binocular_Crowded,76,0.060000000000000005,right,right,0.6782881359999919,correct,1
Block 2: Binocular_Crowded,77,-0.019999999999999997,right,left,0.5867428149999796,false,0
Block 2: Binocular_Crowded,78,0.060000000000000005,right,right,0.799705606000316,correct,1
Block 2: Binocular_Crowded,79,-0.03,left,left,0.6173555359996499,correct,1
Block 2: Binocular_Crowded,80,0.05,right,right,0.5364015579998522,correct,1
Block 2: Binocular_Crowded,81,-0.03,left,left,0.7084646880002765,correct,1
Block 2: Binocular_Crowded,82,0.05,right,right,0.6273617649999323,correct,1
Block 2: Binocular_Crowded,83,0.04,left,right,0.8201952040003562,false,0
Block 2: Binocular_Crowded,84,-0.019999999999999997,right,left,0.7183605430000171,false,0
Block 2: Binocular_Crowded,85,0.05,left,right,0.4254726409999421,false,0
Block 2: Binocular_Crowded,86,-0.03,right,left,0.6678534900001978,false,0
Block 2: Binocular_Crowded,87,0.060000000000000005,left,right,0.526960082000187,false,0
Block 2: Binocular_Crowded,88,-0.04,left,left,0.36426404400026513,correct,1
Block 2: Binocular_Crowded,89,-0.04,left,left,2.3802417160000005,correct,1
Block 2: Binocular_Crowded,90,-0.03,left,left,0.6377900980000959,correct,1
Block 2: Binocular_Crowded,91,-0.03,left,left,3.14020882099976,correct,1
Block 2: Binocular_Crowded,92,-0.019999999999999997,left,left,1.0126566069998262,correct,1
Block 2: Binocular_Crowded,93,0.07,left,right,0.7283874570002808,false,0
Block 2: Binocular_Crowded,94,-0.019999999999999997,right,left,1.325987565000105,false,0
Block 2: Binocular_Crowded,95,-0.03,left,left,0.8806549000000814,correct,1
Block 2: Binocular_Crowded,96,0.08,right,right,0.6885663470002328,correct,1
Block 2: Binocular_Crowded,97,-0.03,left,left,0.8708026030003566,correct,1
Block 2: Binocular_Crowded,98,-0.019999999999999997,left,left,0.6579565870001716,correct,1
Block 2: Binocular_Crowded,99,-0.019999999999999997,left,left,0.5464505969998754,correct,1
Block 2: Binocular_Crowded,100,-0.009999999999999997,left,left,0.47581584900035523,correct,1
Block 2: Binocular_Crowded,101,0.08,left,right,0.7910674830000062,false,0
Block 2: Binocular_Crowded,102,-0.009999999999999997,left,left,0.6476297120002528,correct,1
Block 2: Binocular_Crowded,103,0.09,right,right,0.829876040000272,correct,1
Block 2: Binocular_Crowded,104,0.09,right,right,1.548880889999964,correct,1
Block 2: Binocular_Crowded,105,3.469446951953614e-18,right,left,1.0326656339998408,false,0
Block 2: Binocular_Crowded,106,-0.009999999999999997,left,left,0.2740071849998458,correct,1
Block 2: Binocular_Crowded,107,-0.009999999999999997,left,left,1.1842454210000142,correct,1
Block 2: Binocular_Crowded,108,0.08,right,right,0.5266429569996944,correct,1
Block 2: Binocular_Crowded,109,3.469446951953614e-18,left,left,0.6682616610000878,correct,1
Block 2: Binocular_Crowded,110,0.08,right,right,1.366820270000062,correct,1
Block 2: Binocular_Crowded,111,3.469446951953614e-18,left,left,0.6374071750001349,correct,1
Block 2: Binocular_Crowded,112,0.07,right,right,0.8093521860000692,correct,1
Block 2: Binocular_Crowded,113,0.07,left,right,0.4149183859999539,false,0
Block 2: Binocular_Crowded,114,0.08,right,right,0.4144961100000728,correct,1
Block 2: Binocular_Crowded,115,0.010000000000000004,right,left,0.6176217890001681,false,0
Block 2: Binocular_Crowded,116,0.08,left,right,0.3338854509997873,false,0
Block 2: Binocular_Crowded,117,0.09,right,right,0.5563098430002356,correct,1
Block 2: Binocular_Crowded,118,0.09,right,right,0.8201233889999457,correct,1
Block 2: Binocular_Crowded,119,0.08,right,right,0.6779184460001488,correct,1
Block 2: Binocular_Crowded,120,0.08,right,right,0.5972193140000854,correct,1
Block 2: Binocular_Crowded,121,3.469446951953614e-18,left,left,0.8399877360002392,correct,1
Block 2: Binocular_Crowded,122,0.07,right,right,0.7489547770001082,correct,1
Block 2: Binocular_Crowded,123,3.469446951953614e-18,right,left,1.0629862139999204,false,0
Block 2: Binocular_Crowded,124,0.07,right,right,0.8399246540002423,correct,1
Block 2: Binocular_Crowded,125,-0.009999999999999997,left,left,1.6618333720002738,correct,1
Block 2: Binocular_Crowded,126,0.060000000000000005,right,right,0.678426429999945,correct,1
Block 2: Binocular_Crowded,127,-0.009999999999999997,right,left,0.6579840689996672,false,0
Block 2: Binocular_Crowded,128,-0.019999999999999997,left,left,0.3945619789997181,correct,1
Block 2: Binocular_Crowded,129,-0.019999999999999997,left,left,0.45561597300002177,correct,1
Block 2: Binocular_Crowded,130,0.060000000000000005,right,right,0.749107534000359,correct,1
Block 2: Binocular_Crowded,131,-0.009999999999999997,left,left,0.5974263289999726,correct,1
Block 2: Binocular_Crowded,132,-0.009999999999999997,left,left,0.8807821189998322,correct,1
Block 2: Binocular_Crowded,133,0.05,right,right,0.6275483490003353,correct,1
Block 2: Binocular_Crowded,134,3.469446951953614e-18,left,left,0.587279671000033,correct,1
Block 2: Binocular_Crowded,135,0.05,right,right,0.7793782299995655,correct,1
Block 2: Binocular_Crowded,136,3.469446951953614e-18,left,left,0.6983701409999412,correct,1
Block 2: Binocular_Crowded,137,0.010000000000000004,right,left,0.860360910000054,false,0
Block 2: Binocular_Crowded,138,3.469446951953614e-18,left,left,0.7287428660001751,correct,1
Block 2: Binocular_Crowded,139,3.469446951953614e-18,left,left,0.9009672100000898,correct,1
Block 2: Binocular_Crowded,140,0.010000000000000004,left,left,0.8607475260000683,correct,1
Block 2: Binocular_Crowded,141,0.04,left,right,0.769486415999836,false,0
Block 2: Binocular_Crowded,142,0.05,left,right,0.7391992399998344,false,0
Block 2: Binocular_Crowded,143,0.010000000000000004,left,left,0.5869580799999312,correct,1
Block 2: Binocular_Crowded,144,0.020000000000000004,right,left,0.5566429040000003,false,0
Block 2: Binocular_Crowded,145,0.060000000000000005,right,right,0.7899491520001902,correct,1
Block 2: Binocular_Crowded,146,0.010000000000000004,left,left,1.1040739200002463,correct,1
Block 2: Binocular_Crowded,147,0.010000000000000004,left,left,0.9514718400000675,correct,1
Block 2: Binocular_Crowded,148,0.020000000000000004,right,left,1.5605558769998424,false,0
Block 2: Binocular_Crowded,149,0.060000000000000005,right,right,0.9821802100000241,correct,1
Block 2: Binocular_Crowded,150,0.010000000000000004,left,left,1.2560918180001863,correct,1
Block 2: Binocular_Crowded,151,0.05,right,right,0.7799737760001335,correct,1
Block 2: Binocular_Crowded,152,0.05,left,right,0.8198384870001973,false,0
Block 2: Binocular_Crowded,153,0.010000000000000004,left,left,0.9820359770001232,correct,1
Block 2: Binocular_Crowded,154,0.060000000000000005,right,right,0.8804600210000899,correct,1
Block 2: Binocular_Crowded,155,0.020000000000000004,right,left,0.7690694640000402,false,0
Block 2: Binocular_Crowded,156,0.060000000000000005,left,right,0.8098168390001774,false,0
Block 2: Binocular_Crowded,157,0.010000000000000004,right,left,0.9523312319997785,false,0
Block 2: Binocular_Crowded,158,0.07,left,right,1.7318606079998062,false,0
Block 2: Binocular_Crowded,159,0.08,right,right,1.559120616999735,correct,1
Block 2: Binocular_Crowded,160,0.08,right,right,0.5666086690002885,correct,1
Block 2: Binocular_Crowded,161,0.07,left,right,1.8732419930001925,false,0
Block 2: Binocular_Crowded,162,0.08,right,right,0.7699892069999805,correct,1
Block 2: Binocular_Crowded,163,0.08,right,right,0.7189594170004057,correct,1
Block 2: Binocular_Crowded,164,3.469446951953614e-18,left,left,0.8300441269998373,correct,1
Block 2: Binocular_Crowded,165,0.07,right,right,0.495754709999801,correct,1
Block 2: Binocular_Crowded,166,0.07,right,right,0.5363317179999285,correct,1
Block 2: Binocular_Crowded,167,0.060000000000000005,right,right,0.6072668910001084,correct,1
Block 2: Binocular_Crowded,168,0.060000000000000005,right,right,0.5664247579998118,correct,1
Block 2: Binocular_Crowded,169,0.05,right,right,0.5868627059999199,correct,1
Block 3: Monocular_Standard,0,0.15,right,right,0.7287962569998854,correct,1
Block 3: Monocular_Standard,1,-0.15,right,left,8.021521132000089,false,0
Block 3: Monocular_Standard,2,-0.16,left,left,0.8403356040003018,correct,1
Block 3: Monocular_Standard,3,0.15,right,right,0.607272612000088,correct,1
Block 3: Monocular_Standard,4,-0.16,right,left,3.007692186999975,false,0
Block 3: Monocular_Standard,5,-0.17,left,left,0.4349594539999089,correct,1
Block 3: Monocular_Standard,6,0.13999999999999999,right,right,0.506189565999648,correct,1
Block 3: Monocular_Standard,7,-0.17,left,left,0.46585109200032093,correct,1
Block 3: Monocular_Standard,8,-0.16,left,left,0.4553395420002744,correct,1
Block 3: Monocular_Standard,9,0.13999999999999999,right,right,0.3842454519999592,correct,1
Block 3: Monocular_Standard,10,0.12999999999999998,right,right,0.35355661499988855,correct,1
Block 3: Monocular_Standard,11,-0.16,right,left,1.1449509010003567,false,0
Block 3: Monocular_Standard,12,-0.17,left,left,0.34344764500019664,correct,1
Block 3: Monocular_Standard,13,-0.17,left,left,0.485712300999694,correct,1
Block 3: Monocular_Standard,14,-0.16,left,left,0.34408248099998673,correct,1
Block 3: Monocular_Standard,15,-0.16,left,left,0.36435574000006454,correct,1
Block 3: Monocular_Standard,16,-0.15,left,left,0.48554304199979015,correct,1
Block 3: Monocular_Standard,17,0.12999999999999998,right,right,0.3947404700002153,correct,1
Block 3: Monocular_Standard,18,-0.15,left,left,0.384684906000075,correct,1
Block 3: Monocular_Standard,19,-0.13999999999999999,left,left,0.45526325100036047,correct,1
Block 3: Monocular_Standard,20,-0.13999999999999999,left,left,0.4048261579996506,correct,1
Block 3: Monocular_Standard,21,0.11999999999999998,right,right,0.4148078479997821,correct,1
Block 3: Monocular_Standard,22,0.11999999999999998,right,right,0.394374708000214,correct,1
Block 3: Monocular_Standard,23,-0.12999999999999998,left,left,0.40468089100022553,correct,1
Block 3: Monocular_Standard,24,0.10999999999999999,right,right,0.3236992380002448,correct,1
Block 3: Monocular_Standard,25,0.10999999999999999,right,right,0.46568361800018465,correct,1
Block 3: Monocular_Standard,26,-0.12999999999999998,left,left,0.4044031690000338,correct,1
Block 3: Monocular_Standard,27,0.09999999999999999,right,right,0.3035275880001791,correct,1
Block 3: Monocular_Standard,28,-0.11999999999999998,left,left,0.27337020799996026,correct,1
Block 3: Monocular_Standard,29,-0.11999999999999998,left,left,0.46528489100001025,correct,1
Block 3: Monocular_Standard,30,-0.10999999999999999,left,left,0.3034997210002075,correct,1
Block 3: Monocular_Standard,31,0.09999999999999999,right,right,0.36403894500017486,correct,1
Block 3: Monocular_Standard,32,0.09,left,right,0.30330729000024803,false,0
Block 3: Monocular_Standard,33,-0.10999999999999999,left,left,0.4247150480000528,correct,1
Block 3: Monocular_Standard,34,-0.09999999999999999,right,left,0.0704922559998522,false,0
Block 3: Monocular_Standard,35,-0.10999999999999999,left,left,0.4654329609998058,correct,1
Block 3: Monocular_Standard,36,0.09999999999999999,right,right,0.9415641499999765,correct,1
Block 3: Monocular_Standard,37,-0.10999999999999999,left,left,0.8808888010003102,correct,1
Block 3: Monocular_Standard,38,-0.09999999999999999,left,left,0.4454276269998445,correct,1
Block 3: Monocular_Standard,39,0.09999999999999999,right,right,0.45510826600002474,correct,1
Block 3: Monocular_Standard,40,-0.09999999999999999,left,left,0.39474376899988783,correct,1
Block 3: Monocular_Standard,41,0.09,right,right,0.3948086059999696,correct,1
Block 3: Monocular_Standard,42,0.09,right,right,0.8098131279998597,correct,1
Block 3: Monocular_Standard,43,-0.09,right,left,0.34395209100011925,false,0
Block 3: Monocular_Standard,44,0.08,right,right,0.5868872589999228,correct,1
Block 3: Monocular_Standard,45,0.08,right,right,0.4250046490001296,correct,1
Block 3: Monocular_Standard,46,-0.09999999999999999,left,left,0.45587867499989443,correct,1
Block 3: Monocular_Standard,47,0.07,right,right,0.4651301069998226,correct,1
Block 3: Monocular_Standard,48,-0.09999999999999999,left,left,0.9319443320000573,correct,1
Block 3: Monocular_Standard,49,-0.09,left,left,0.9417735890001495,correct,1
Block 3: Monocular_Standard,50,-0.09,left,left,0.5980461630001628,correct,1
Block 3: Monocular_Standard,51,-0.08,left,left,0.4654660600003808,correct,1
Block 3: Monocular_Standard,52,-0.08,left,left,0.5161937540001418,correct,1
Block 3: Monocular_Standard,53,0.07,right,right,0.5663235759998315,correct,1
Block 3: Monocular_Standard,54,-0.07,left,left,0.8103534599999875,correct,1
Block 3: Monocular_Standard,55,-0.07,left,left,0.6376085039996724,correct,1
Block 3: Monocular_Standard,56,0.060000000000000005,right,right,0.5770909560001201,correct,1
Block 3: Monocular_Standard,57,0.060000000000000005,right,right,0.5970753259998673,correct,1
Block 3: Monocular_Standard,58,-0.060000000000000005,left,left,0.7491958310001792,correct,1
Block 3: Monocular_Standard,59,-0.060000000000000005,left,left,0.7893172039998717,correct,1
Block 3: Monocular_Standard,60,-0.05,left,left,1.1234660670002086,correct,1
Block 3: Monocular_Standard,61,-0.05,left,left,0.6980708559999584,correct,1
Block 3: Monocular_Standard,62,0.05,right,right,0.658863547999772,correct,1
Block 3: Monocular_Standard,63,0.05,right,right,0.7486270070003229,correct,1
Block 3: Monocular_Standard,64,0.04,right,right,0.5062343610002245,correct,1
Block 3: Monocular_Standard,65,-0.04,left,left,1.012412771000072,correct,1
Block 3: Monocular_Standard,66,0.04,right,right,0.5060752210001738,correct,1
Block 3: Monocular_Standard,67,-0.04,left,left,0.6584311679998791,correct,1
Block 3: Monocular_Standard,68,-0.03,left,left,0.5766549509999095,correct,1
Block 3: Monocular_Standard,69,-0.03,right,left,0.5060606419997384,false,0
Block 3: Monocular_Standard,70,0.03,right,right,0.4964703800001189,correct,1
Block 3: Monocular_Standard,71,-0.04,left,left,0.6886932420002267,correct,1
Block 3: Monocular_Standard,72,-0.04,left,left,0.7598771300004046,correct,1
Block 3: Monocular_Standard,73,0.03,right,right,0.4856344419999914,correct,1
Block 3: Monocular_Standard,74,-0.03,right,left,0.5973099560001174,false,0
Block 3: Monocular_Standard,75,0.019999999999999997,right,right,0.7491054450001684,correct,1
Block 3: Monocular_Standard,76,-0.04,left,left,0.749357357000008,correct,1
Block 3: Monocular_Standard,77,0.019999999999999997,right,right,1.3370483170001535,correct,1
Block 3: Monocular_Standard,78,-0.04,left,left,1.0022305339998638,correct,1
Block 3: Monocular_Standard,79,0.009999999999999997,left,right,1.1950389359999463,false,0
Block 3: Monocular_Standard,80,0.019999999999999997,right,right,0.7087544940000043,correct,1
Block 3: Monocular_Standard,81,0.019999999999999997,right,right,0.6487699809999867,correct,1
Block 3: Monocular_Standard,82,0.009999999999999997,right,right,3.696758499000225,correct,1
Block 3: Monocular_Standard,83,0.009999999999999997,right,right,0.7793383220000578,correct,1
Block 3: Monocular_Standard,84,-3.469446951953614e-18,right,right,0.8000180470003215,correct,1
Block 3: Monocular_Standard,85,-3.469446951953614e-18,left,right,3.0280184970001756,false,0
Block 3: Monocular_Standard,86,0.009999999999999997,right,right,0.6078539049999563,correct,1
Block 3: Monocular_Standard,87,-0.03,left,left,0.5970602160000453,correct,1
Block 3: Monocular_Standard,88,0.009999999999999997,left,right,0.9317645340001945,false,0
Block 3: Monocular_Standard,89,-0.03,right,left,0.5569267930000024,false,0
Block 3: Monocular_Standard,90,0.019999999999999997,right,right,0.5267777929998374,correct,1
Block 3: Monocular_Standard,91,-0.04,left,left,0.5462842899996758,correct,1
Block 3: Monocular_Standard,92,0.019999999999999997,right,right,0.5673298930000783,correct,1
Block 3: Monocular_Standard,93,0.009999999999999997,right,right,1.792973143999916,correct,1
Block 3: Monocular_Standard,94,0.009999999999999997,right,right,0.49721476500008066,correct,1
Block 3: Monocular_Standard,95,-0.04,right,left,0.2628776429996833,false,0
Block 3: Monocular_Standard,96,-3.469446951953614e-18,right,right,0.6678587919996062,correct,1
Block 3: Monocular_Standard,97,-3.469446951953614e-18,left,right,0.6278363299998091,false,0
Block 3: Monocular_Standard,98,-0.05,left,left,0.637994420999803,correct,1
Block 3: Monocular_Standard,99,0.009999999999999997,right,right,0.577115448999848,correct,1
Block 3: Monocular_Standard,100,-0.05,left,left,0.6070009439999922,correct,1
Block 3: Monocular_Standard,101,0.009999999999999997,right,right,0.5467919340003391,correct,1
Block 3: Monocular_Standard,102,-0.04,right,left,0.9516468759998133,false,0
Block 3: Monocular_Standard,103,-0.05,left,left,0.5872744829998737,correct,1
Block 3: Monocular_Standard,104,-0.05,left,left,0.8411927299998752,correct,1
Block 3: Monocular_Standard,105,-3.469446951953614e-18,right,right,1.0326264860000265,correct,1
Block 3: Monocular_Standard,106,-3.469446951953614e-18,left,right,0.789677243999904,false,0
Block 3: Monocular_Standard,107,0.009999999999999997,right,right,0.6581116930001372,correct,1
Block 3: Monocular_Standard,108,0.009999999999999997,right,right,0.7183194670001285,correct,1
Block 3: Monocular_Standard,109,-0.04,left,left,0.5564123829999517,correct,1
Block 3: Monocular_Standard,110,-0.04,left,left,0.8913843820000693,correct,1
Block 3: Monocular_Standard,111,-3.469446951953614e-18,left,right,0.7189515230002144,false,0
Block 3: Monocular_Standard,112,-0.03,right,left,0.4652689070003362,false,0
Block 3: Monocular_Standard,113,0.009999999999999997,right,right,0.42483726199998273,correct,1
Block 3: Monocular_Standard,114,0.009999999999999997,left,right,0.5867530680002346,false,0
Block 3: Monocular_Standard,115,0.019999999999999997,left,right,1.0330981460001567,false,0
Block 3: Monocular_Standard,116,0.03,right,right,0.4856525249997503,correct,1
Block 3: Monocular_Standard,117,0.03,right,right,0.4755889960001696,correct,1
Block 3: Monocular_Standard,118,-0.04,left,left,0.5568701469996995,correct,1
Block 3: Monocular_Standard,119,0.019999999999999997,right,right,0.6174367290000191,correct,1
Block 3: Monocular_Standard,120,-0.04,left,left,0.5262458520001019,correct,1
Block 3: Monocular_Standard,121,-0.03,left,left,0.7393180710000706,correct,1
Block 3: Monocular_Standard,122,0.019999999999999997,right,right,0.5868127759999879,correct,1
Block 3: Monocular_Standard,123,-0.03,right,left,0.49568451499999355,false,0
Block 3: Monocular_Standard,124,-0.04,left,left,0.7197665520002374,correct,1
Block 3: Monocular_Standard,125,0.009999999999999997,left,right,0.6692502410000998,false,0
Block 3: Monocular_Standard,126,0.019999999999999997,right,right,0.7999222059997919,correct,1
Block 3: Monocular_Standard,127,-0.04,left,left,0.5667709210001703,correct,1
Block 3: Monocular_Standard,128,-0.03,left,left,0.7593543020002471,correct,1
Block 3: Monocular_Standard,129,-0.03,left,left,0.6077444130000913,correct,1
Block 3: Monocular_Standard,130,0.019999999999999997,right,right,0.5361092339999232,correct,1
Block 3: Monocular_Standard,131,0.009999999999999997,right,right,0.7597721539996201,correct,1
Block 3: Monocular_Standard,132,0.009999999999999997,right,right,0.526269301999946,correct,1
Block 3: Monocular_Standard,133,-3.469446951953614e-18,right,right,0.5566126979997534,correct,1
Block 3: Monocular_Standard,134,-3.469446951953614e-18,right,right,0.6074343810000755,correct,1
Block 3: Monocular_Standard,135,-0.019999999999999997,left,left,0.6375768359998801,correct,1
Block 3: Monocular_Standard,136,-0.010000000000000004,right,right,0.5767803210001148,correct,1
Block 3: Monocular_Standard,137,-0.010000000000000004,right,right,0.5968453059999774,correct,1
Block 3: Monocular_Standard,138,-0.020000000000000004,right,right,0.4350672030000169,correct,1
Block 3: Monocular_Standard,139,-0.020000000000000004,right,right,0.45524992499986183,correct,1
Block 3: Monocular_Standard,140,-0.030000000000000006,right,right,0.30316853299973445,correct,1
Block 3: Monocular_Standard,141,-0.019999999999999997,right,left,0.42523378399982903,false,0
Block 3: Monocular_Standard,142,-0.03,left,left,0.5056595549999656,correct,1
Block 3: Monocular_Standard,143,-0.030000000000000006,right,right,0.4862130100000286,correct,1
Block 3: Monocular_Standard,144,-0.04000000000000001,left,right,1.053017213000203,false,0
Block 3: Monocular_Standard,145,-0.03,left,left,0.5468810560000748,correct,1
Block 3: Monocular_Standard,146,-0.030000000000000006,left,right,0.8812741619999542,false,0
Block 3: Monocular_Standard,147,-0.020000000000000004,right,right,0.4145289530001719,correct,1
Block 3: Monocular_Standard,148,-0.020000000000000004,right,right,0.5770250329996998,correct,1
Block 3: Monocular_Standard,149,-0.019999999999999997,left,left,0.607342551000329,correct,1
Block 3: Monocular_Standard,150,-0.019999999999999997,left,left,0.5871844700000111,correct,1
Block 3: Monocular_Standard,151,-0.030000000000000006,left,right,0.8610939110003528,false,0
Block 3: Monocular_Standard,152,-0.009999999999999997,left,left,0.6782676759999049,correct,1
Block 3: Monocular_Standard,153,-0.009999999999999997,right,left,0.7697059950000948,false,0
Block 3: Monocular_Standard,154,-0.019999999999999997,left,left,0.36410097499992844,correct,1
Block 3: Monocular_Standard,155,-0.020000000000000004,left,right,0.5670884239998486,false,0
Block 3: Monocular_Standard,156,-0.019999999999999997,left,left,0.8804666790001647,correct,1
Block 3: Monocular_Standard,157,-0.010000000000000004,right,right,0.749142244000268,correct,1
Block 3: Monocular_Standard,158,-0.009999999999999997,left,left,0.5869176839996726,correct,1
Block 3: Monocular_Standard,159,-0.009999999999999997,left,left,0.7284215330000734,correct,1
Block 3: Monocular_Standard,160,3.469446951953614e-18,left,left,0.6575661889996809,correct,1
Block 3: Monocular_Standard,161,3.469446951953614e-18,left,left,1.0222179340003095,correct,1
Block 3: Monocular_Standard,162,-0.010000000000000004,left,right,0.8704893480003193,false,0
Block 3: Monocular_Standard,163,-3.469446951953614e-18,right,right,0.688352587999816,correct,1
Block 3: Monocular_Standard,164,0.010000000000000004,right,left,0.7999353069999415,false,0
Block 3: Monocular_Standard,165,3.469446951953614e-18,left,left,0.6284602609998728,correct,1
Block 3: Monocular_Standard,166,-3.469446951953614e-18,left,right,0.6879512579998845,false,0
Block 3: Monocular_Standard,167,0.009999999999999997,left,right,3.575016832000074,false,0
Block 3: Monocular_Standard,168,3.469446951953614e-18,right,left,0.5969737119999081,false,0
Block 3: Monocular_Standard,169,0.019999999999999997,left,right,0.5362797610000598,false,0
Block 4: Monocular_Crowded,0,0.15,right,right,0.8905324480001582,correct,1
Block 4: Monocular_Crowded,1,0.15,right,right,0.647831942999801,correct,1
Block 4: Monocular_Crowded,2,0.13999999999999999,right,right,0.5267174700002215,correct,1
Block 4: Monocular_Crowded,3,0.13999999999999999,right,right,0.5364444130000265,correct,1
Block 4: Monocular_Crowded,4,0.12999999999999998,right,right,0.45539214199970957,correct,1
Block 4: Monocular_Crowded,5,0.12999999999999998,right,right,0.6782072490000246,correct,1
Block 4: Monocular_Crowded,6,-0.15,left,left,0.5159219180000036,correct,1
Block 4: Monocular_Crowded,7,0.11999999999999998,right,right,0.5462966689997302,correct,1
Block 4: Monocular_Crowded,8,0.11999999999999998,right,right,0.5059049780002169,correct,1
Block 4: Monocular_Crowded,9,0.10999999999999999,left,right,0.5060114499997326,false,0
Block 4: Monocular_Crowded,10,-0.15,left,left,0.7084179720000066,correct,1
Block 4: Monocular_Crowded,11,0.11999999999999998,right,right,0.5160988259999613,correct,1
Block 4: Monocular_Crowded,12,-0.13999999999999999,left,left,1.5592866950000825,correct,1
Block 4: Monocular_Crowded,13,-0.13999999999999999,left,left,0.6472931949997474,correct,1
Block 4: Monocular_Crowded,14,0.11999999999999998,right,right,0.5366358520000176,correct,1
Block 4: Monocular_Crowded,15,0.10999999999999999,right,right,0.6777144640000188,correct,1
Block 4: Monocular_Crowded,16,-0.12999999999999998,left,left,0.5468161720000353,correct,1
Block 4: Monocular_Crowded,17,0.10999999999999999,right,right,0.5263800339998852,correct,1
Block 4: Monocular_Crowded,18,-0.12999999999999998,left,left,0.46591992100002244,correct,1
Block 4: Monocular_Crowded,19,-0.11999999999999998,left,left,0.41458657099974516,correct,1
Block 4: Monocular_Crowded,20,-0.11999999999999998,left,left,0.41470230599998104,correct,1
Block 4: Monocular_Crowded,21,-0.10999999999999999,left,left,0.5161522490002426,correct,1
Block 4: Monocular_Crowded,22,0.09999999999999999,right,right,0.4553540880001492,correct,1
Block 4: Monocular_Crowded,23,0.09999999999999999,right,right,0.5783586969996577,correct,1
Block 4: Monocular_Crowded,24,-0.10999999999999999,left,left,0.4866671059999135,correct,1
Block 4: Monocular_Crowded,25,0.09,right,right,0.7996179649999249,correct,1
Block 4: Monocular_Crowded,26,-0.09999999999999999,left,left,1.518472257999747,correct,1
Block 4: Monocular_Crowded,27,0.09,right,right,0.4254031680002299,correct,1
Block 4: Monocular_Crowded,28,0.08,right,right,0.5667419509995852,correct,1
Block 4: Monocular_Crowded,29,-0.09999999999999999,left,left,0.3947725510001874,correct,1
Block 4: Monocular_Crowded,30,-0.09,left,left,0.5363240500000757,correct,1
Block 4: Monocular_Crowded,31,0.08,right,right,1.9548199910000221,correct,1
Block 4: Monocular_Crowded,32,0.07,right,right,1.1846447240000089,correct,1
Block 4: Monocular_Crowded,33,-0.09,left,left,0.5263728270001593,correct,1
Block 4: Monocular_Crowded,34,0.07,right,right,0.5463349709998511,correct,1
Block 4: Monocular_Crowded,35,0.060000000000000005,right,right,0.6271518280000237,correct,1
Block 4: Monocular_Crowded,36,0.060000000000000005,right,right,0.5463408590003382,correct,1
Block 4: Monocular_Crowded,37,0.05,right,right,0.5468057140001292,correct,1
Block 4: Monocular_Crowded,38,0.05,right,right,1.1139240069996958,correct,1
Block 4: Monocular_Crowded,39,0.04,right,right,0.5162206059999335,correct,1
Block 4: Monocular_Crowded,40,-0.08,left,left,0.4451823270001114,correct,1
Block 4: Monocular_Crowded,41,-0.08,left,left,0.6172708449998936,correct,1
Block 4: Monocular_Crowded,42,-0.07,left,left,0.7088535240000056,correct,1
Block 4: Monocular_Crowded,43,-0.07,left,left,0.4656955300001755,correct,1
Block 4: Monocular_Crowded,44,-0.060000000000000005,left,left,0.5768202459998975,correct,1
Block 4: Monocular_Crowded,45,0.04,left,right,1.0126955710002221,false,0
Block 4: Monocular_Crowded,46,-0.060000000000000005,right,left,0.39463741700001265,false,0
Block 4: Monocular_Crowded,47,-0.07,left,left,0.45500973900016106,correct,1
Block 4: Monocular_Crowded,48,-0.07,left,left,0.4354867629999717,correct,1
Block 4: Monocular_Crowded,49,0.05,left,right,0.5561318869999923,false,0
Block 4: Monocular_Crowded,50,-0.060000000000000005,left,left,0.546411831000114,correct,1
Block 4: Monocular_Crowded,51,0.060000000000000005,right,right,0.44548740100026407,correct,1
Block 4: Monocular_Crowded,52,0.060000000000000005,right,right,0.5271049319999292,correct,1
Block 4: Monocular_Crowded,53,-0.060000000000000005,left,left,0.475278765999974,correct,1
Block 4: Monocular_Crowded,54,-0.05,left,left,0.45558824300042033,correct,1
Block 4: Monocular_Crowded,55,-0.05,left,left,0.5768688299999667,correct,1
Block 4: Monocular_Crowded,56,-0.04,left,left,0.41467214300018895,correct,1
Block 4: Monocular_Crowded,57,0.05,left,right,0.6783668590001071,false,0
Block 4: Monocular_Crowded,58,0.060000000000000005,right,right,0.5055021269999997,correct,1
Block 4: Monocular_Crowded,59,-0.04,left,left,0.3439098210001248,correct,1
Block 4: Monocular_Crowded,60,0.060000000000000005,left,right,0.46553753699981826,false,0
Block 4: Monocular_Crowded,61,-0.03,right,left,0.38444806999996217,false,0
Block 4: Monocular_Crowded,62,-0.04,left,left,0.6065587319999395,correct,1
Block 4: Monocular_Crowded,63,-0.04,left,left,0.43454501900032483,correct,1
Block 4: Monocular_Crowded,64,0.07,right,right,0.941760155999873,correct,1
Block 4: Monocular_Crowded,65,-0.03,left,left,0.5773901020002086,correct,1
Block 4: Monocular_Crowded,66,-0.03,left,left,0.5567716979999204,correct,1
Block 4: Monocular_Crowded,67,0.07,right,right,0.5060363910001797,correct,1
Block 4: Monocular_Crowded,68,0.060000000000000005,right,right,0.6691898189997119,correct,1
Block 4: Monocular_Crowded,69,0.060000000000000005,left,right,0.5571043359996111,false,0
Block 4: Monocular_Crowded,70,-0.019999999999999997,right,left,0.3440708070002074,false,0
Block 4: Monocular_Crowded,71,-0.03,left,left,0.4756602339998608,correct,1
Block 4: Monocular_Crowded,72,-0.03,left,left,0.4354616639998312,correct,1
Block 4: Monocular_Crowded,73,-0.019999999999999997,left,left,0.6478730169997107,correct,1
Block 4: Monocular_Crowded,74,-0.019999999999999997,left,left,0.5267679519997728,correct,1
Block 4: Monocular_Crowded,75,-0.009999999999999997,left,left,0.3941387569998369,correct,1
Block 4: Monocular_Crowded,76,0.07,right,right,0.6479276000000027,correct,1
Block 4: Monocular_Crowded,77,-0.009999999999999997,right,left,0.7893345759998738,false,0
Block 4: Monocular_Crowded,78,-0.019999999999999997,left,left,0.35387995199971556,correct,1
Block 4: Monocular_Crowded,79,-0.019999999999999997,left,left,0.37437063099969237,correct,1
Block 4: Monocular_Crowded,80,0.07,right,right,0.6374333510002543,correct,1
Block 4: Monocular_Crowded,81,0.060000000000000005,left,right,0.7084533060001377,false,0
Block 4: Monocular_Crowded,82,0.07,right,right,0.4655327880000186,correct,1
Block 4: Monocular_Crowded,83,-0.009999999999999997,left,left,0.6071229419999327,correct,1
Block 4: Monocular_Crowded,84,-0.009999999999999997,left,left,0.8611286889999974,correct,1
Block 4: Monocular_Crowded,85,0.07,right,right,0.5164463979999709,correct,1
Block 4: Monocular_Crowded,86,3.469446951953614e-18,right,left,0.647933705000014,false,0
Block 4: Monocular_Crowded,87,-0.009999999999999997,left,left,0.4249410400002489,correct,1
Block 4: Monocular_Crowded,88,0.060000000000000005,left,right,0.7186212080000587,false,0
Block 4: Monocular_Crowded,89,-0.009999999999999997,left,left,0.48581722600010835,correct,1
Block 4: Monocular_Crowded,90,0.07,right,right,0.5868299459998525,correct,1
Block 4: Monocular_Crowded,91,0.07,right,right,0.5670579909997286,correct,1
Block 4: Monocular_Crowded,92,0.060000000000000005,left,right,0.8704781240003285,false,0
Block 4: Monocular_Crowded,93,3.469446951953614e-18,right,left,0.5061186770003587,false,0
Block 4: Monocular_Crowded,94,0.07,left,right,0.3335957479998797,false,0
Block 4: Monocular_Crowded,95,0.08,right,right,0.4859473890001027,correct,1
Block 4: Monocular_Crowded,96,0.08,right,right,0.4754026740001791,correct,1
Block 4: Monocular_Crowded,97,0.07,right,right,0.7195570110002336,correct,1
Block 4: Monocular_Crowded,98,0.07,right,right,0.5364372939998248,correct,1
Block 4: Monocular_Crowded,99,0.060000000000000005,right,right,0.6172686330000943,correct,1
Block 4: Monocular_Crowded,100,-0.009999999999999997,right,left,0.7493419450001966,false,0
Block 4: Monocular_Crowded,101,-0.019999999999999997,left,left,0.46566084500000215,correct,1
Block 4: Monocular_Crowded,102,0.060000000000000005,right,right,0.6072884720001639,correct,1
Block 4: Monocular_Crowded,103,0.05,right,right,0.5565004079999198,correct,1
Block 4: Monocular_Crowded,104,0.05,right,right,0.4958865329999753,correct,1
Block 4: Monocular_Crowded,105,0.04,right,right,0.5666521339999235,correct,1
Block 4: Monocular_Crowded,106,0.04,right,right,0.24380352800017135,correct,1
Block 4: Monocular_Crowded,107,-0.019999999999999997,right,left,0.476011125000241,false,0
Block 4: Monocular_Crowded,108,-0.03,left,left,0.3540791369996441,correct,1
Block 4: Monocular_Crowded,109,-0.03,left,left,0.5467072330002338,correct,1
Block 4: Monocular_Crowded,110,0.03,left,right,0.45574196200004735,false,0
Block 4: Monocular_Crowded,111,0.04,right,right,0.26284837100001823,correct,1
Block 4: Monocular_Crowded,112,0.04,right,right,0.5163219169999138,correct,1
Block 4: Monocular_Crowded,113,-0.019999999999999997,right,left,0.6272545629999513,false,0
Block 4: Monocular_Crowded,114,-0.03,left,left,0.3641231470001003,correct,1
Block 4: Monocular_Crowded,115,-0.03,left,left,0.49615211299988005,correct,1
Block 4: Monocular_Crowded,116,0.03,left,right,0.36406883200015727,false,0
Block 4: Monocular_Crowded,117,-0.019999999999999997,right,left,0.31335676399976364,false,0
Block 4: Monocular_Crowded,118,0.04,left,right,0.4754332030001933,false,0
Block 4: Monocular_Crowded,119,-0.03,right,left,0.476831883000159,false,0
Block 4: Monocular_Crowded,120,-0.04,left,left,0.6581798249999338,correct,1
Block 4: Monocular_Crowded,121,-0.04,right,left,0.6073093830000289,false,0
Block 4: Monocular_Crowded,122,-0.05,left,left,0.5466932629997245,correct,1
Block 4: Monocular_Crowded,123,-0.05,left,left,0.5871757780000735,correct,1
Block 4: Monocular_Crowded,124,-0.04,left,left,1.0229504590001852,correct,1
Block 4: Monocular_Crowded,125,-0.04,left,left,1.3061890730000414,correct,1
Block 4: Monocular_Crowded,126,-0.03,left,left,0.6378191169997081,correct,1
Block 4: Monocular_Crowded,127,-0.03,left,left,0.4148317379999753,correct,1
Block 4: Monocular_Crowded,128,0.05,left,right,0.5362500209998871,false,0
Block 4: Monocular_Crowded,129,0.060000000000000005,right,right,0.5060618349998549,correct,1
Block 4: Monocular_Crowded,130,0.060000000000000005,right,right,0.5061235050002324,correct,1
Block 4: Monocular_Crowded,131,0.05,left,right,0.597169374999794,false,0
Block 4: Monocular_Crowded,132,0.060000000000000005,right,right,0.5669795490002798,correct,1
Block 4: Monocular_Crowded,133,-0.019999999999999997,right,left,0.5669237439997232,false,0
Block 4: Monocular_Crowded,134,0.060000000000000005,left,right,0.32383193099985874,false,0
Block 4: Monocular_Crowded,135,-0.03,right,left,0.4465325609999127,false,0
Block 4: Monocular_Crowded,136,-0.04,left,left,0.4148452899999029,correct,1
Block 4: Monocular_Crowded,137,0.07,right,right,0.556423366999752,correct,1
Block 4: Monocular_Crowded,138,-0.04,left,left,0.5666396920000807,correct,1
Block 4: Monocular_Crowded,139,0.07,right,right,0.6583682790001149,correct,1
Block 4: Monocular_Crowded,140,0.060000000000000005,right,right,0.5262420750000274,correct,1
Block 4: Monocular_Crowded,141,-0.03,right,left,0.4959041810002418,false,0
Block 4: Monocular_Crowded,142,0.060000000000000005,left,right,0.33399882799994884,false,0
Block 4: Monocular_Crowded,143,0.07,right,right,0.20223217000011573,correct,1
Block 4: Monocular_Crowded,144,0.07,right,right,0.597275781999997,correct,1
Block 4: Monocular_Crowded,145,0.060000000000000005,right,right,0.5968069509999623,correct,1
Block 4: Monocular_Crowded,146,-0.04,right,left,0.49558622899985494,false,0
Block 4: Monocular_Crowded,147,-0.05,left,left,0.31382476199996745,correct,1
Block 4: Monocular_Crowded,148,0.060000000000000005,left,right,0.44510368199962613,false,0
Block 4: Monocular_Crowded,149,-0.05,right,left,0.2833855250000852,false,0
Block 4: Monocular_Crowded,150,-0.060000000000000005,left,left,0.4252825710000252,correct,1
Block 4: Monocular_Crowded,151,-0.060000000000000005,left,left,0.8205459190003239,correct,1
Block 4: Monocular_Crowded,152,0.07,right,right,0.6680142289997093,correct,1
Block 4: Monocular_Crowded,153,0.07,left,right,0.7389678529998491,false,0
Block 4: Monocular_Crowded,154,0.08,right,right,0.4147052520002035,correct,1
Block 4: Monocular_Crowded,155,0.08,right,right,0.4965289730002951,correct,1
Block 4: Monocular_Crowded,156,-0.05,left,left,0.6474024939998344,correct,1
Block 4: Monocular_Crowded,157,-0.05,left,left,0.4248273359999075,correct,1
Block 4: Monocular_Crowded,158,-0.04,left,left,0.4658988189999036,correct,1
Block 4: Monocular_Crowded,159,0.07,left,right,0.860730476000299,false,0
Block 4: Monocular_Crowded,160,-0.04,left,left,0.8606577779996769,correct,1
Block 4: Monocular_Crowded,161,-0.03,left,left,0.6784334570002102,correct,1
Block 4: Monocular_Crowded,162,0.08,left,right,0.9011243059999288,false,0
Block 4: Monocular_Crowded,163,0.09,right,right,0.28363269900000887,correct,1
Block 4: Monocular_Crowded,164,-0.03,left,left,0.5669554689998222,correct,1
Block 4: Monocular_Crowded,165,-0.019999999999999997,right,left,0.6488569620000817,false,0
Block 4: Monocular_Crowded,166,-0.03,left,left,0.4349275929998839,correct,1
Block 4: Monocular_Crowded,167,-0.03,left,left,0.4150195030001669,correct,1
Block 4: Monocular_Crowded,168,0.09,right,right,0.4961707669999669,correct,1
Block 4: Monocular_Crowded,169,0.08,right,right,0.5668529070003387,correct,1
