label,trials,offset,keys,direction,response_time,accuracy,response_numeric
Block 1: Binocular_Standard,0,0.15,right,right,0.6453899289999754,correct,1
Block 1: Binocular_Standard,1,-0.15,left,left,0.32366584800001874,correct,1
Block 1: Binocular_Standard,2,-0.15,right,left,0.3336607869996442,false,0
Block 1: Binocular_Standard,3,0.15,right,right,0.3335402000002432,correct,1
Block 1: Binocular_Standard,4,-0.16,left,left,0.30345082500025455,correct,1
Block 1: Binocular_Standard,5,-0.16,left,left,0.30300540200005344,correct,1
Block 1: Binocular_Standard,6,-0.15,left,left,0.3032402789999651,correct,1
Block 1: Binocular_Standard,7,0.13999999999999999,right,right,0.2529499910001505,correct,1
Block 1: Binocular_Standard,8,0.13999999999999999,left,right,0.34380676000000676,false,0
Block 1: Binocular_Standard,9,0.15,right,right,0.3029129690003174,correct,1
Block 1: Binocular_Standard,10,0.15,right,right,0.41507071000023643,correct,1
Block 1: Binocular_Standard,11,-0.15,left,left,0.32375440799978605,correct,1
Block 1: Binocular_Standard,12,-0.13999999999999999,left,left,0.35392280400037635,correct,1
Block 1: Binocular_Standard,13,-0.13999999999999999,left,left,0.3842631339998661,correct,1
Block 1: Binocular_Standard,14,0.13999999999999999,right,right,0.3143469369997547,correct,1
Block 1: Binocular_Standard,15,0.13999999999999999,right,right,0.3340919050001503,correct,1
Block 1: Binocular_Standard,16,0.12999999999999998,right,right,0.3134104030000344,correct,1
Block 1: Binocular_Standard,17,-0.12999999999999998,left,left,0.32383931599997595,correct,1
Block 1: Binocular_Standard,18,-0.12999999999999998,left,left,0.3540421170000627,correct,1
Block 1: Binocular_Standard,19,0.12999999999999998,right,right,0.33368744900008096,correct,1
Block 1: Binocular_Standard,20,0.11999999999999998,right,right,0.4756996460000664,correct,1
Block 1: Binocular_Standard,21,0.11999999999999998,right,right,0.4045117199998458,correct,1
Block 1: Binocular_Standard,22,0.10999999999999999,right,right,0.4955571810000947,correct,1
Block 1: Binocular_Standard,23,0.10999999999999999,right,right,0.4856311389999064,correct,1
Block 1: Binocular_Standard,24,-0.11999999999999998,left,left,0.2833487170000808,correct,1
Block 1: Binocular_Standard,25,-0.11999999999999998,left,left,0.34478720300012355,correct,1
Block 1: Binocular_Standard,26,0.09999999999999999,right,right,0.3035358570000426,correct,1
Block 1: Binocular_Standard,27,0.09999999999999999,right,right,0.3134801259998312,correct,1
Block 1: Binocular_Standard,28,0.09,right,right,0.3136292140002297,correct,1
Block 1: Binocular_Standard,29,0.09,right,right,0.40468602800001463,correct,1
Block 1: Binocular_Standard,30,-0.10999999999999999,left,left,0.313646066000274,correct,1
Block 1: Binocular_Standard,31,0.08,right,right,0.4654420649999338,correct,1
Block 1: Binocular_Standard,32,0.08,right,right,0.3842390740001065,correct,1
Block 1: Binocular_Standard,33,-0.10999999999999999,left,left,0.4453782489999867,correct,1
Block 1: Binocular_Standard,34,0.07,right,right,0.4048082220001561,correct,1
Block 1: Binocular_Standard,35,0.07,right,right,0.4862836199999947,correct,1
Block 1: Binocular_Standard,36,-0.09999999999999999,left,left,0.25332594800011066,correct,1
Block 1: Binocular_Standard,37,-0.09999999999999999,left,left,0.48537775500017233,correct,1
Block 1: Binocular_Standard,38,0.060000000000000005,right,right,0.2828391000002739,correct,1
Block 1: Binocular_Standard,39,-0.09,left,left,0.24263583999982075,correct,1
Block 1: Binocular_Standard,40,0.060000000000000005,right,right,0.26272089299982326,correct,1
Block 1: Binocular_Standard,41,-0.09,left,left,0.23236552999969717,correct,1
Block 1: Binocular_Standard,42,-0.08,left,left,0.24289451799995732,correct,1
Block 1: Binocular_Standard,43,0.05,right,right,0.4045830720001504,correct,1
Block 1: Binocular_Standard,44,-0.08,left,left,0.4449466519999987,correct,1
Block 1: Binocular_Standard,45,0.05,right,right,0.3844692459997532,correct,1
Block 1: Binocular_Standard,46,0.04,right,right,0.46580158500000834,correct,1
Block 1: Binocular_Standard,47,-0.07,left,left,0.5261214480001399,correct,1
Block 1: Binocular_Standard,48,-0.07,left,left,0.41495734399995854,correct,1
Block 1: Binocular_Standard,49,-0.060000000000000005,right,left,0.2931651829999282,false,0
Block 1: Binocular_Standard,50,-0.07,left,left,0.45479010200006087,correct,1
Block 1: Binocular_Standard,51,-0.07,left,left,0.4352607529999659,correct,1
Block 1: Binocular_Standard,52,-0.060000000000000005,left,left,0.3236948730000222,correct,1
Block 1: Binocular_Standard,53,-0.060000000000000005,left,left,0.4555452630002037,correct,1
Block 1: Binocular_Standard,54,-0.05,left,left,0.47584137100011503,correct,1
Block 1: Binocular_Standard,55,0.04,right,right,0.4564562109999315,correct,1
Block 1: Binocular_Standard,56,0.03,right,right,0.8910867089998646,correct,1
Block 1: Binocular_Standard,57,-0.05,left,left,0.4146320969998669,correct,1
Block 1: Binocular_Standard,58,0.03,right,right,0.7185074379999605,correct,1
Block 1: Binocular_Standard,59,0.019999999999999997,right,right,0.3941802969998207,correct,1
Block 1: Binocular_Standard,60,0.019999999999999997,right,right,0.47555718300009175,correct,1
Block 1: Binocular_Standard,61,-0.04,left,left,0.27303548700001556,correct,1
Block 1: Binocular_Standard,62,-0.04,right,left,0.2730506319999222,false,0
Block 1: Binocular_Standard,63,-0.05,right,left,0.32360948499990627,false,0
Block 1: Binocular_Standard,64,-0.060000000000000005,left,left,0.414597999000307,correct,1
Block 1: Binocular_Standard,65,0.009999999999999997,right,right,0.5974715259999357,correct,1
Block 1: Binocular_Standard,66,-0.060000000000000005,right,left,0.3034169530001236,false,0
Block 1: Binocular_Standard,67,0.009999999999999997,right,right,0.48568020699985937,correct,1
Block 1: Binocular_Standard,68,-0.07,left,left,0.33361560200000895,correct,1
Block 1: Binocular_Standard,69,-0.07,right,left,0.31400607400019,false,0
Block 1: Binocular_Standard,70,-3.469446951953614e-18,right,right,0.5766436299995803,correct,1
Block 1: Binocular_Standard,71,-3.469446951953614e-18,right,right,0.7593304259999059,correct,1
Block 1: Binocular_Standard,72,-0.08,left,left,0.2936047180000969,correct,1
Block 1: Binocular_Standard,73,-0.010000000000000004,left,right,0.43566141600013,false,0
Block 1: Binocular_Standard,74,-3.469446951953614e-18,left,right,0.36526095599992914,false,0
Block 1: Binocular_Standard,75,0.009999999999999997,left,right,0.5061537219999082,false,0
Block 1: Binocular_Standard,76,0.019999999999999997,left,right,0.3337877419999131,false,0
Block 1: Binocular_Standard,77,-0.08,left,left,0.3441314869996859,correct,1
Block 1: Binocular_Standard,78,0.03,right,right,0.5570063640002445,correct,1
Block 1: Binocular_Standard,79,-0.07,left,left,0.3739138760001879,correct,1
Block 1: Binocular_Standard,80,0.03,right,right,0.5565206800001761,correct,1
Block 1: Binocular_Standard,81,-0.07,left,left,0.3539324199996372,correct,1
Block 1: Binocular_Standard,82,0.019999999999999997,right,right,0.48537622300000294,correct,1
Block 1: Binocular_Standard,83,-0.060000000000000005,left,left,0.35403276099987124,correct,1
Block 1: Binocular_Standard,84,-0.060000000000000005,left,left,0.45609498100020573,correct,1
Block 1: Binocular_Standard,85,0.019999999999999997,right,right,0.5563985130002038,correct,1
Block 1: Binocular_Standard,86,-0.05,left,left,0.5060418890002438,correct,1
Block 1: Binocular_Standard,87,0.009999999999999997,right,right,0.4144273790002444,correct,1
Block 1: Binocular_Standard,88,0.009999999999999997,right,right,0.8398893630001112,correct,1
Block 1: Binocular_Standard,89,-3.469446951953614e-18,right,right,0.6170719149999968,correct,1
Block 1: Binocular_Standard,90,-3.469446951953614e-18,right,right,1.762166870999863,correct,1
Block 1: Binocular_Standard,91,-0.010000000000000004,left,right,0.43495363900001394,false,0
Block 1: Binocular_Standard,92,-0.05,left,left,0.47547333200009234,correct,1
Block 1: Binocular_Standard,93,-0.04,left,left,0.38436544999967737,correct,1
Block 1: Binocular_Standard,94,-0.04,left,left,0.5259649129998252,correct,1
Block 1: Binocular_Standard,95,-3.469446951953614e-18,right,right,0.5972540570001001,correct,1
Block 1: Binocular_Standard,96,-0.03,left,left,0.516371270000036,correct,1
Block 1: Binocular_Standard,97,-3.469446951953614e-18,left,right,0.5463811250001527,false,0
Block 1: Binocular_Standard,98,-0.03,right,left,0.44556286500028364,false,0
Block 1: Binocular_Standard,99,-0.04,left,left,0.45526315899996916,correct,1
Block 1: Binocular_Standard,100,-0.04,left,left,0.49616473999958544,correct,1
Block 1: Binocular_Standard,101,0.009999999999999997,right,right,3.331805128000269,correct,1
Block 1: Binocular_Standard,102,0.009999999999999997,right,right,0.627427938999972,correct,1
Block 1: Binocular_Standard,103,-3.469446951953614e-18,right,right,2.4508592709998993,correct,1
Block 1: Binocular_Standard,104,-0.03,left,left,0.48561640500020076,correct,1
Block 1: Binocular_Standard,105,-0.03,right,left,1.2456502120003279,false,0
Block 1: Binocular_Standard,106,-3.469446951953614e-18,left,right,0.31366866099961044,false,0
Block 1: Binocular_Standard,107,-0.04,left,left,0.7905780159999267,correct,1
Block 1: Binocular_Standard,108,-0.04,left,left,0.4454615009999543,correct,1
Block 1: Binocular_Standard,109,-0.03,right,left,0.41514911900003426,false,0
Block 1: Binocular_Standard,110,0.009999999999999997,right,right,0.4144163959999787,correct,1
Block 1: Binocular_Standard,111,-0.04,left,left,2.7552449039999374,correct,1
Block 1: Binocular_Standard,112,-0.04,left,left,0.546537301999706,correct,1
Block 1: Binocular_Standard,113,0.009999999999999997,right,right,0.5766657289996147,correct,1
Block 1: Binocular_Standard,114,-3.469446951953614e-18,right,right,0.6168829389998791,correct,1
Block 1: Binocular_Standard,115,-3.469446951953614e-18,left,right,1.5487239950002731,false,0
Block 1: Binocular_Standard,116,0.009999999999999997,right,right,0.6173672300001272,correct,1
Block 1: Binocular_Standard,117,-0.03,left,left,1.7921981719996438,correct,1
Block 1: Binocular_Standard,118,-0.03,left,left,0.5664418500000465,correct,1
Block 1: Binocular_Standard,119,-0.019999999999999997,right,left,0.4752053639999758,false,0
Block 1: Binocular_Standard,120,-0.03,left,left,0.5365520889999971,correct,1
Block 1: Binocular_Standard,121,0.009999999999999997,right,right,0.4865110230002756,correct,1
Block 1: Binocular_Standard,122,-0.03,left,left,0.6068286899999293,correct,1
Block 1: Binocular_Standard,123,-0.019999999999999997,left,left,3.312309550000009,correct,1
Block 1: Binocular_Standard,124,-3.469446951953614e-18,left,right,2.6125294139997095,false,0
Block 1: Binocular_Standard,125,-0.019999999999999997,left,left,0.4654528159999245,correct,1
Block 1: Binocular_Standard,126,0.009999999999999997,right,right,0.5058862969999609,correct,1
Block 1: Binocular_Standard,127,-0.009999999999999997,left,left,0.6272340669997902,correct,1
Block 1: Binocular_Standard,128,-0.009999999999999997,right,left,0.6575568869998278,false,0
Block 1: Binocular_Standard,129,-0.019999999999999997,left,left,2.3492157740001858,correct,1
Block 1: Binocular_Standard,130,0.009999999999999997,right,right,0.36458067700004904,correct,1
Block 1: Binocular_Standard,131,-0.019999999999999997,left,left,0.41459842000040226,correct,1
Block 1: Binocular_Standard,132,-3.469446951953614e-18,right,right,0.5158259330000874,correct,1
Block 1: Binocular_Standard,133,-3.469446951953614e-18,left,right,0.3544601359999433,false,0
Block 1: Binocular_Standard,134,0.009999999999999997,left,right,0.48551979600006234,false,0
Block 1: Binocular_Standard,135,-0.009999999999999997,left,left,0.3139404169996851,correct,1
Block 1: Binocular_Standard,136,0.019999999999999997,left,right,0.4554798059998575,false,0
Block 1: Binocular_Standard,137,0.03,right,right,0.33361085699971227,correct,1
Block 1: Binocular_Standard,138,-0.009999999999999997,left,left,0.5267324750002444,correct,1
Block 1: Binocular_Standard,139,0.03,left,right,0.7290292679999766,false,0
Block 1: Binocular_Standard,140,3.469446951953614e-18,left,left,0.505702336000013,correct,1
Block 1: Binocular_Standard,141,3.469446951953614e-18,left,left,0.3850185229998715,correct,1
Block 1: Binocular_Standard,142,0.010000000000000004,left,left,0.34342980399969747,correct,1
Block 1: Binocular_Standard,143,0.010000000000000004,right,left,0.43502750699963144,false,0
Block 1: Binocular_Standard,144,3.469446951953614e-18,left,left,0.37440523900022527,correct,1
Block 1: Binocular_Standard,145,0.04,right,right,0.3338833769998928,correct,1
Block 1: Binocular_Standard,146,0.04,right,right,0.404732033000073,correct,1
Block 1: Binocular_Standard,147,0.03,left,right,0.39477636899982826,false,0
Block 1: Binocular_Standard,148,0.04,right,right,0.3740246960001059,correct,1
Block 1: Binocular_Standard,149,3.469446951953614e-18,right,left,0.43618870899990725,false,0
Block 1: Binocular_Standard,150,0.04,right,right,0.4962269779998678,correct,1
Block 1: Binocular_Standard,151,-0.009999999999999997,right,left,0.4148272630000065,false,0
Block 1: Binocular_Standard,152,-0.019999999999999997,left,left,0.45551127799990354,correct,1
Block 1: Binocular_Standard,153,0.03,right,right,0.3540441949999149,correct,1
Block 1: Binocular_Standard,154,0.03,right,right,0.33350381499985815,correct,1
Block 1: Binocular_Standard,155,-0.019999999999999997,left,left,0.43485865799993917,correct,1
Block 1: Binocular_Standard,156,0.019999999999999997,right,right,0.5972707770001762,correct,1
Block 1: Binocular_Standard,157,-0.009999999999999997,right,left,0.5057163850001416,false,0
Block 1: Binocular_Standard,158,-0.019999999999999997,left,left,0.5057341940000697,correct,1
Block 1: Binocular_Standard,159,0.019999999999999997,right,right,0.4456711269999687,correct,1
Block 1: Binocular_Standard,160,0.009999999999999997,right,right,0.4857476610000049,correct,1
Block 1: Binocular_Standard,161,0.009999999999999997,right,right,0.3842991690003146,correct,1
Block 1: Binocular_Standard,162,-3.469446951953614e-18,left,right,0.42544227400003365,false,0
Block 1: Binocular_Standard,163,0.009999999999999997,right,right,0.37411148699993646,correct,1
Block 1: Binocular_Standard,164,-0.019999999999999997,left,left,0.4347108990000379,correct,1
Block 1: Binocular_Standard,165,-0.009999999999999997,right,left,0.4451077879998593,false,0
Block 1: Binocular_Standard,166,0.009999999999999997,left,right,0.9625882149998688,false,0
Block 1: Binocular_Standard,167,-0.019999999999999997,right,left,0.3745042279997506,false,0
Block 1: Binocular_Standard,168,0.019999999999999997,right,right,0.4451257560003796,correct,1
Block 1: Binocular_Standard,169,-0.03,left,left,0.3641787469996416,correct,1
Block 2: Binocular_Crowded,0,-0.15,left,left,0.7087009189999662,correct,1
Block 2: Binocular_Crowded,1,0.15,right,right,0.3538800579999588,correct,1
Block 2: Binocular_Crowded,2,0.15,right,right,0.38446213499992155,correct,1
Block 2: Binocular_Crowded,3,0.13999999999999999,right,right,0.36434183300025325,correct,1
Block 2: Binocular_Crowded,4,0.13999999999999999,right,right,0.3438498969999273,correct,1
Block 2: Binocular_Crowded,5,-0.15,right,left,0.39478934899989326,false,0
Block 2: Binocular_Crowded,6,-0.16,left,left,0.30353394599978856,correct,1
Block 2: Binocular_Crowded,7,-0.16,right,left,0.6377726620003159,false,0
Block 2: Binocular_Crowded,8,-0.17,right,left,0.46573299900001075,false,0
Block 2: Binocular_Crowded,9,-0.18000000000000002,left,left,0.4247491930000251,correct,1
Block 2: Binocular_Crowded,10,0.12999999999999998,right,right,0.46535337500017704,correct,1
Block 2: Binocular_Crowded,11,0.12999999999999998,right,right,0.3944745779999721,correct,1
Block 2: Binocular_Crowded,12,-0.18000000000000002,left,left,0.3039168760001303,correct,1
Block 2: Binocular_Crowded,13,-0.17,left,left,0.516146578000189,correct,1
Block 2: Binocular_Crowded,14,0.11999999999999998,right,right,0.4956891930000893,correct,1
Block 2: Binocular_Crowded,15,0.11999999999999998,right,right,0.3945963210003356,correct,1
Block 2: Binocular_Crowded,16,-0.17,left,left,0.45567586600009236,correct,1
Block 2: Binocular_Crowded,17,-0.16,left,left,0.36423163400013436,correct,1
Block 2: Binocular_Crowded,18,-0.16,left,left,0.3031263430002582,correct,1
Block 2: Binocular_Crowded,19,0.10999999999999999,right,right,0.4457696399999804,correct,1
Block 2: Binocular_Crowded,20,0.10999999999999999,right,right,0.38402923200010264,correct,1
Block 2: Binocular_Crowded,21,-0.15,left,left,0.31340938499988624,correct,1
Block 2: Binocular_Crowded,22,-0.15,left,left,0.40455523399987214,correct,1
Block 2: Binocular_Crowded,23,-0.13999999999999999,right,left,0.36443510300023263,false,0
Block 2: Binocular_Crowded,24,0.09999999999999999,left,right,0.49562776999982816,false,0
Block 2: Binocular_Crowded,25,-0.15,left,left,0.3135661430001164,correct,1
Block 2: Binocular_Crowded,26,-0.15,left,left,0.34418683599960787,correct,1
Block 2: Binocular_Crowded,27,-0.13999999999999999,left,left,0.37435494400006064,correct,1
Block 2: Binocular_Crowded,28,0.10999999999999999,right,right,0.44512290300008317,correct,1
Block 2: Binocular_Crowded,29,-0.13999999999999999,left,left,0.6172642759997871,correct,1
Block 2: Binocular_Crowded,30,-0.12999999999999998,left,left,0.36418885600005524,correct,1
Block 2: Binocular_Crowded,31,-0.12999999999999998,left,left,0.5058758770001077,correct,1
Block 2: Binocular_Crowded,32,-0.11999999999999998,left,left,0.4147329399997943,correct,1
Block 2: Binocular_Crowded,33,-0.11999999999999998,left,left,0.3640176150001935,correct,1
Block 2: Binocular_Crowded,34,0.10999999999999999,right,right,0.42526379999981145,correct,1
Block 2: Binocular_Crowded,35,0.09999999999999999,right,right,0.3845345649997398,correct,1
Block 2: Binocular_Crowded,36,0.09999999999999999,right,right,0.3743159850000666,correct,1
Block 2: Binocular_Crowded,37,0.09,right,right,0.29294727899969075,correct,1
Block 2: Binocular_Crowded,38,0.09,right,right,0.3233875920000173,correct,1
Block 2: Binocular_Crowded,39,0.08,right,right,0.3338252199996532,correct,1
Block 2: Binocular_Crowded,40,0.08,right,right,0.35388424200027657,correct,1
Block 2: Binocular_Crowded,41,-0.10999999999999999,left,left,0.2628491240002404,correct,1
Block 2: Binocular_Crowded,42,0.07,right,right,0.3339292610003213,correct,1
Block 2: Binocular_Crowded,43,-0.10999999999999999,left,left,0.2639268620000621,correct,1
Block 2: Binocular_Crowded,44,-0.09999999999999999,left,left,0.38464711500000703,correct,1
Block 2: Binocular_Crowded,45,-0.09999999999999999,left,left,0.32361897400005546,correct,1
Block 2: Binocular_Crowded,46,0.07,right,right,0.38413300199999867,correct,1
Block 2: Binocular_Crowded,47,-0.09,right,left,0.31334710900000573,false,0
Block 2: Binocular_Crowded,48,-0.09999999999999999,left,left,0.3242543799997293,correct,1
Block 2: Binocular_Crowded,49,-0.09999999999999999,left,left,0.33386306000011245,correct,1
Block 2: Binocular_Crowded,50,-0.09,left,left,0.3336888580001869,correct,1
Block 2: Binocular_Crowded,51,-0.09,left,left,0.3543207249999796,correct,1
Block 2: Binocular_Crowded,52,0.060000000000000005,right,right,0.40441634800026804,correct,1
Block 2: Binocular_Crowded,53,0.060000000000000005,right,right,0.3944880259996353,correct,1
Block 2: Binocular_Crowded,54,0.05,right,right,0.3337478260000353,correct,1
Block 2: Binocular_Crowded,55,-0.08,left,left,0.3034840970003643,correct,1
Block 2: Binocular_Crowded,56,-0.08,left,left,0.3647124710000753,correct,1
Block 2: Binocular_Crowded,57,0.05,left,right,0.3136328030000186,false,0
Block 2: Binocular_Crowded,58,-0.07,left,left,0.2729638360001445,correct,1
Block 2: Binocular_Crowded,59,0.060000000000000005,right,right,0.4451583339996432,correct,1
Block 2: Binocular_Crowded,60,0.060000000000000005,right,right,0.45537137999963306,correct,1
Block 2: Binocular_Crowded,61,0.05,left,right,0.2830960689998392,false,0
Block 2: Binocular_Crowded,62,0.060000000000000005,right,right,0.32345305000035296,correct,1
Block 2: Binocular_Crowded,63,0.060000000000000005,right,right,0.3945451250001497,correct,1
Block 2: Binocular_Crowded,64,-0.07,left,left,0.31372872100018867,correct,1
Block 2: Binocular_Crowded,65,-0.060000000000000005,right,left,0.38445285499983584,false,0
Block 2: Binocular_Crowded,66,0.05,right,right,0.4046557090000533,correct,1
Block 2: Binocular_Crowded,67,0.05,right,right,0.4348566169996957,correct,1
Block 2: Binocular_Crowded,68,0.04,left,right,0.42489083000009487,false,0
Block 2: Binocular_Crowded,69,0.05,right,right,0.40478610899981504,correct,1
Block 2: Binocular_Crowded,70,0.05,right,right,0.5667931240000144,correct,1
Block 2: Binocular_Crowded,71,-0.07,left,left,0.32336549299998296,correct,1
Block 2: Binocular_Crowded,72,0.04,right,right,0.39463629399961064,correct,1
Block 2: Binocular_Crowded,73,0.04,left,right,0.263081019999845,false,0
Block 2: Binocular_Crowded,74,0.05,right,right,0.3440908979996493,correct,1
Block 2: Binocular_Crowded,75,0.05,right,right,0.34377421899989713,correct,1
Block 2: Binocular_Crowded,76,-0.07,left,left,0.41459872199993697,correct,1
Block 2: Binocular_Crowded,77,-0.060000000000000005,left,left,0.3946241810003812,correct,1
Block 2: Binocular_Crowded,78,-0.060000000000000005,right,left,0.33355295699993803,false,0
Block 2: Binocular_Crowded,79,-0.07,left,left,0.34392080899988287,correct,1
Block 2: Binocular_Crowded,80,0.04,right,right,0.445189763000144,correct,1
Block 2: Binocular_Crowded,81,-0.07,left,left,0.32344905199988716,correct,1
Block 2: Binocular_Crowded,82,0.04,right,right,0.46520509700030743,correct,1
Block 2: Binocular_Crowded,83,0.03,left,right,0.2730295489996024,false,0
Block 2: Binocular_Crowded,84,0.04,right,right,0.4053307300000597,correct,1
Block 2: Binocular_Crowded,85,-0.060000000000000005,left,left,0.364357151999684,correct,1
Block 2: Binocular_Crowded,86,-0.060000000000000005,left,left,0.3743702769997981,correct,1
Block 2: Binocular_Crowded,87,0.04,right,right,0.3948589249998804,correct,1
Block 2: Binocular_Crowded,88,-0.05,left,left,0.3239863690000675,correct,1
Block 2: Binocular_Crowded,89,-0.05,left,left,0.46528977300022234,correct,1
Block 2: Binocular_Crowded,90,0.03,right,right,0.5981552639996153,correct,1
Block 2: Binocular_Crowded,91,0.03,left,right,0.3739787630001956,false,0
Block 2: Binocular_Crowded,92,0.04,right,right,0.3845529519999218,correct,1
Block 2: Binocular_Crowded,93,0.04,right,right,0.42494693200023903,correct,1
Block 2: Binocular_Crowded,94,-0.04,left,left,0.36433448700017834,correct,1
Block 2: Binocular_Crowded,95,-0.04,left,left,0.3437982430000375,correct,1
Block 2: Binocular_Crowded,96,0.03,left,right,0.44532058699996924,false,0
Block 2: Binocular_Crowded,97,0.04,right,right,0.35406818799992834,correct,1
Block 2: Binocular_Crowded,98,0.04,right,right,0.45529892400008976,correct,1
Block 2: Binocular_Crowded,99,0.03,left,right,0.4754420079998454,false,0
Block 2: Binocular_Crowded,100,0.04,right,right,0.3640546059996268,correct,1
Block 2: Binocular_Crowded,101,-0.03,left,left,0.5071163729999171,correct,1
Block 2: Binocular_Crowded,102,0.04,right,right,0.5563205409998773,correct,1
Block 2: Binocular_Crowded,103,0.03,right,right,0.6881320649999907,correct,1
Block 2: Binocular_Crowded,104,-0.03,left,left,0.43511716200009687,correct,1
Block 2: Binocular_Crowded,105,0.03,right,right,0.5670372979998319,correct,1
Block 2: Binocular_Crowded,106,-0.019999999999999997,left,left,0.4349091720000615,correct,1
Block 2: Binocular_Crowded,107,-0.019999999999999997,right,left,0.46542196100017463,false,0
Block 2: Binocular_Crowded,108,0.019999999999999997,right,right,0.3843436249999286,correct,1
Block 2: Binocular_Crowded,109,0.019999999999999997,left,right,0.42465802800006713,false,0
Block 2: Binocular_Crowded,110,-0.03,left,left,0.4654244200000903,correct,1
Block 2: Binocular_Crowded,111,0.03,right,right,0.4449732490002134,correct,1
Block 2: Binocular_Crowded,112,-0.03,left,left,0.35409749400014334,correct,1
Block 2: Binocular_Crowded,113,0.03,right,right,0.4245098770002187,correct,1
Block 2: Binocular_Crowded,114,-0.019999999999999997,left,left,0.43508897199990315,correct,1
Block 2: Binocular_Crowded,115,0.019999999999999997,left,right,0.56660814199995,false,0
Block 2: Binocular_Crowded,116,-0.019999999999999997,left,left,0.4155596290001995,correct,1
Block 2: Binocular_Crowded,117,-0.009999999999999997,left,left,0.44487610100031816,correct,1
Block 2: Binocular_Crowded,118,-0.009999999999999997,right,left,0.4246978629998921,false,0
Block 2: Binocular_Crowded,119,-0.019999999999999997,right,left,0.39496561200030555,false,0
Block 2: Binocular_Crowded,120,0.03,right,right,0.49570487299979504,correct,1
Block 2: Binocular_Crowded,121,-0.03,left,left,0.3640565659998174,correct,1
Block 2: Binocular_Crowded,122,-0.03,left,left,0.38448385499987126,correct,1
Block 2: Binocular_Crowded,123,0.03,left,right,0.3549861860001329,false,0
Block 2: Binocular_Crowded,124,0.04,right,right,0.3548059919999105,correct,1
Block 2: Binocular_Crowded,125,0.04,right,right,0.38473852600009195,correct,1
Block 2: Binocular_Crowded,126,-0.019999999999999997,right,left,0.5974189479998131,false,0
Block 2: Binocular_Crowded,127,0.03,right,right,0.45569420499987245,correct,1
Block 2: Binocular_Crowded,128,-0.03,left,left,0.506183860999954,correct,1
Block 2: Binocular_Crowded,129,-0.03,right,left,0.3738537740000538,false,0
Block 2: Binocular_Crowded,130,0.03,right,right,0.36391827899979035,correct,1
Block 2: Binocular_Crowded,131,0.019999999999999997,left,right,0.384987633000037,false,0
Block 2: Binocular_Crowded,132,-0.04,left,left,0.40474462099973607,correct,1
Block 2: Binocular_Crowded,133,0.03,left,right,0.434875970000121,false,0
Block 2: Binocular_Crowded,134,0.04,left,right,0.4045165919997089,false,0
Block 2: Binocular_Crowded,135,0.05,right,right,0.38408537400027853,correct,1
Block 2: Binocular_Crowded,136,0.05,left,right,0.4449371730001985,false,0
Block 2: Binocular_Crowded,137,-0.04,left,left,0.42592840800034537,correct,1
Block 2: Binocular_Crowded,138,0.060000000000000005,right,right,0.4250594770001044,correct,1
Block 2: Binocular_Crowded,139,-0.03,left,left,0.40486056799954895,correct,1
Block 2: Binocular_Crowded,140,-0.03,left,left,0.38426820199993017,correct,1
Block 2: Binocular_Crowded,141,-0.019999999999999997,left,left,0.48571936100006496,correct,1
Block 2: Binocular_Crowded,142,-0.019999999999999997,right,left,0.475623732999793,false,0
Block 2: Binocular_Crowded,143,0.060000000000000005,right,right,0.3642311589997007,correct,1
Block 2: Binocular_Crowded,144,0.05,right,right,0.3438774700002796,correct,1
Block 2: Binocular_Crowded,145,-0.03,left,left,0.39467498099975273,correct,1
Block 2: Binocular_Crowded,146,-0.03,left,left,0.5969522479999796,correct,1
Block 2: Binocular_Crowded,147,-0.019999999999999997,left,left,0.374142849999771,correct,1
Block 2: Binocular_Crowded,148,-0.019999999999999997,left,left,0.46604248299991013,correct,1
Block 2: Binocular_Crowded,149,-0.009999999999999997,left,left,0.3540248250001241,correct,1
Block 2: Binocular_Crowded,150,0.05,right,right,0.4047564889997375,correct,1
Block 2: Binocular_Crowded,151,-0.009999999999999997,left,left,0.6073056850000285,correct,1
Block 2: Binocular_Crowded,152,0.04,right,right,0.5362687979995826,correct,1
Block 2: Binocular_Crowded,153,0.04,right,right,0.4249538270000812,correct,1
Block 2: Binocular_Crowded,154,3.469446951953614e-18,right,left,0.5259005520001665,false,0
Block 2: Binocular_Crowded,155,0.03,left,right,0.23231187999999747,false,0
Block 2: Binocular_Crowded,156,-0.009999999999999997,right,left,0.6278768610000043,false,0
Block 2: Binocular_Crowded,157,0.04,left,right,0.35393216800002847,false,0
Block 2: Binocular_Crowded,158,-0.019999999999999997,left,left,0.7287260779999087,correct,1
Block 2: Binocular_Crowded,159,0.05,right,right,0.3948949599998741,correct,1
Block 2: Binocular_Crowded,160,-0.019999999999999997,right,left,0.3641961929997706,false,0
Block 2: Binocular_Crowded,161,0.05,left,right,0.34428076400035934,false,0
Block 2: Binocular_Crowded,162,-0.03,left,left,0.434835970000222,correct,1
Block 2: Binocular_Crowded,163,-0.03,left,left,0.5159077510002135,correct,1
Block 2: Binocular_Crowded,164,-0.019999999999999997,left,left,0.6679918140002883,correct,1
Block 2: Binocular_Crowded,165,0.060000000000000005,right,right,0.29301966100001664,correct,1
Block 2: Binocular_Crowded,166,0.060000000000000005,left,right,0.3341648629998417,false,0
Block 2: Binocular_Crowded,167,0.07,right,right,0.31364676100020006,correct,1
Block 2: Binocular_Crowded,168,-0.019999999999999997,right,left,0.871159259000251,false,0
Block 2: Binocular_Crowded,169,-0.03,left,left,0.38446776499995394,correct,1
Block 3: Monocular_Standard,0,-0.15,left,left,0.5972276420002345,correct,1
Block 3: Monocular_Standard,1,0.15,right,right,0.2629202560001431,correct,1
Block 3: Monocular_Standard,2,0.15,right,right,0.34369603499999357,correct,1
Block 3: Monocular_Standard,3,-0.15,left,left,0.3437674430001607,correct,1
Block 3: Monocular_Standard,4,-0.13999999999999999,left,left,0.3845106140001917,correct,1
Block 3: Monocular_Standard,5,0.13999999999999999,right,right,0.3031033289998959,correct,1
Block 3: Monocular_Standard,6,-0.13999999999999999,left,left,0.35385134399984963,correct,1
Block 3: Monocular_Standard,7,0.13999999999999999,right,right,0.30465444799983743,correct,1
Block 3: Monocular_Standard,8,-0.12999999999999998,left,left,0.304028315999858,correct,1
Block 3: Monocular_Standard,9,-0.12999999999999998,left,left,0.3041201790001651,correct,1
Block 3: Monocular_Standard,10,-0.11999999999999998,right,left,0.2930974020000576,false,0
Block 3: Monocular_Standard,11,0.12999999999999998,right,right,0.28316390899999533,correct,1
Block 3: Monocular_Standard,12,-0.12999999999999998,left,left,0.29321791000029407,correct,1
Block 3: Monocular_Standard,13,0.12999999999999998,right,right,0.41507307700021556,correct,1
Block 3: Monocular_Standard,14,-0.12999999999999998,left,left,0.34387202099969727,correct,1
Block 3: Monocular_Standard,15,-0.11999999999999998,left,left,0.29299700100000337,correct,1
Block 3: Monocular_Standard,16,-0.11999999999999998,left,left,0.3236598140001661,correct,1
Block 3: Monocular_Standard,17,0.11999999999999998,right,right,0.3645002769999337,correct,1
Block 3: Monocular_Standard,18,-0.10999999999999999,left,left,0.283124675000181,correct,1
Block 3: Monocular_Standard,19,-0.10999999999999999,right,left,0.3030656179998914,false,0
Block 3: Monocular_Standard,20,0.11999999999999998,right,right,0.293197851000059,correct,1
Block 3: Monocular_Standard,21,-0.11999999999999998,left,left,0.28281025199976284,correct,1
Block 3: Monocular_Standard,22,0.10999999999999999,right,right,0.3437713020002775,correct,1
Block 3: Monocular_Standard,23,0.10999999999999999,left,right,0.37447674099985306,false,0
Block 3: Monocular_Standard,24,-0.11999999999999998,left,left,0.32356264099962573,correct,1
Block 3: Monocular_Standard,25,-0.10999999999999999,left,left,0.314595090000239,correct,1
Block 3: Monocular_Standard,26,-0.10999999999999999,left,left,0.3438255249998292,correct,1
Block 3: Monocular_Standard,27,-0.09999999999999999,left,left,0.28353016399978515,correct,1
Block 3: Monocular_Standard,28,-0.09999999999999999,left,left,0.3439666760000364,correct,1
Block 3: Monocular_Standard,29,0.11999999999999998,right,right,0.2930343479997646,correct,1
Block 3: Monocular_Standard,30,-0.09,left,left,0.3031438759999219,correct,1
Block 3: Monocular_Standard,31,-0.09,left,left,0.2728261370002656,correct,1
Block 3: Monocular_Standard,32,0.11999999999999998,right,right,0.3445864039999833,correct,1
Block 3: Monocular_Standard,33,0.10999999999999999,left,right,0.3135534259999986,false,0
Block 3: Monocular_Standard,34,-0.08,left,left,0.34390275399982784,correct,1
Block 3: Monocular_Standard,35,-0.08,left,left,0.34396789299989905,correct,1
Block 3: Monocular_Standard,36,-0.07,left,left,0.31349830099998144,correct,1
Block 3: Monocular_Standard,37,0.11999999999999998,right,right,0.3440904090002732,correct,1
Block 3: Monocular_Standard,38,-0.07,left,left,0.30355254400001286,correct,1
Block 3: Monocular_Standard,39,-0.060000000000000005,left,left,0.28335806999984925,correct,1
Block 3: Monocular_Standard,40,-0.060000000000000005,left,left,0.2828522410000005,correct,1
Block 3: Monocular_Standard,41,-0.05,right,left,0.4454801159999988,false,0
Block 3: Monocular_Standard,42,-0.060000000000000005,left,left,0.2630243150001661,correct,1
Block 3: Monocular_Standard,43,0.11999999999999998,right,right,0.3540026610003224,correct,1
Block 3: Monocular_Standard,44,0.10999999999999999,right,right,0.425213777999943,correct,1
Block 3: Monocular_Standard,45,0.10999999999999999,right,right,0.3539613279999685,correct,1
Block 3: Monocular_Standard,46,0.09999999999999999,right,right,0.313520391000111,correct,1
Block 3: Monocular_Standard,47,-0.060000000000000005,left,left,0.3441479530001743,correct,1
Block 3: Monocular_Standard,48,-0.05,left,left,0.45536538800024573,correct,1
Block 3: Monocular_Standard,49,-0.05,right,left,0.4246665599998778,false,0
Block 3: Monocular_Standard,50,0.09999999999999999,right,right,0.333898076999958,correct,1
Block 3: Monocular_Standard,51,0.09,right,right,0.3440511809999407,correct,1
Block 3: Monocular_Standard,52,0.09,right,right,0.36395048799977303,correct,1
Block 3: Monocular_Standard,53,-0.060000000000000005,left,left,0.37444414300034623,correct,1
Block 3: Monocular_Standard,54,-0.060000000000000005,left,left,0.3339130409999598,correct,1
Block 3: Monocular_Standard,55,0.08,right,right,0.42515343100012615,correct,1
Block 3: Monocular_Standard,56,0.08,right,right,0.38456465700028275,correct,1
Block 3: Monocular_Standard,57,-0.05,left,left,0.4754188110000541,correct,1
Block 3: Monocular_Standard,58,-0.05,right,left,0.374201888999778,false,0
Block 3: Monocular_Standard,59,0.07,right,right,0.3541784720000578,correct,1
Block 3: Monocular_Standard,60,-0.060000000000000005,left,left,0.2931239940003252,correct,1
Block 3: Monocular_Standard,61,-0.060000000000000005,left,left,0.29328709599985814,correct,1
Block 3: Monocular_Standard,62,0.07,right,right,0.35486211499983256,correct,1
Block 3: Monocular_Standard,63,-0.05,right,left,0.31332755200037354,false,0
Block 3: Monocular_Standard,64,-0.060000000000000005,left,left,0.5162580750002235,correct,1
Block 3: Monocular_Standard,65,0.060000000000000005,right,right,0.29334603200004494,correct,1
Block 3: Monocular_Standard,66,-0.060000000000000005,left,left,0.4452515770003629,correct,1
Block 3: Monocular_Standard,67,-0.05,left,left,0.26284168799975305,correct,1
Block 3: Monocular_Standard,68,-0.05,left,left,0.31317976799982716,correct,1
Block 3: Monocular_Standard,69,-0.04,left,left,0.22229358200002025,correct,1
Block 3: Monocular_Standard,70,-0.04,left,left,0.3440077959999144,correct,1
Block 3: Monocular_Standard,71,0.060000000000000005,right,right,0.31336160399996515,correct,1
Block 3: Monocular_Standard,72,-0.03,left,left,0.6274796009997772,correct,1
Block 3: Monocular_Standard,73,-0.03,left,left,0.48594013399997493,correct,1
Block 3: Monocular_Standard,74,0.05,right,right,0.3336392769997474,correct,1
Block 3: Monocular_Standard,75,-0.019999999999999997,left,left,0.2832399060002899,correct,1
Block 3: Monocular_Standard,76,0.05,right,right,0.36438186400027917,correct,1
Block 3: Monocular_Standard,77,-0.019999999999999997,left,left,0.293502062999778,correct,1
Block 3: Monocular_Standard,78,-0.009999999999999997,left,left,0.3640833790000215,correct,1
Block 3: Monocular_Standard,79,0.04,right,right,0.32359033600005205,correct,1
Block 3: Monocular_Standard,80,0.04,right,right,0.4146582789999229,correct,1
Block 3: Monocular_Standard,81,-0.009999999999999997,left,left,0.3540451250000842,correct,1
Block 3: Monocular_Standard,82,0.03,right,right,0.3948454380001749,correct,1
Block 3: Monocular_Standard,83,0.03,left,right,0.47586027599982117,false,0
Block 3: Monocular_Standard,84,0.04,right,right,0.3235691800000495,correct,1
Block 3: Monocular_Standard,85,0.04,left,right,0.4451445429999694,false,0
Block 3: Monocular_Standard,86,0.05,right,right,0.5062436309999612,correct,1
Block 3: Monocular_Standard,87,0.05,right,right,0.38459011299983104,correct,1
Block 3: Monocular_Standard,88,3.469446951953614e-18,right,left,0.5676723619999393,false,0
Block 3: Monocular_Standard,89,0.04,right,right,0.44555281500015553,correct,1
Block 3: Monocular_Standard,90,0.04,right,right,0.4456994140000461,correct,1
Block 3: Monocular_Standard,91,0.03,right,right,0.4852625089997673,correct,1
Block 3: Monocular_Standard,92,0.03,right,right,0.556731912000032,correct,1
Block 3: Monocular_Standard,93,0.019999999999999997,right,right,0.4859142100003737,correct,1
Block 3: Monocular_Standard,94,-0.009999999999999997,left,left,0.6686672260002524,correct,1
Block 3: Monocular_Standard,95,0.019999999999999997,right,right,0.32390850199999477,correct,1
Block 3: Monocular_Standard,96,-0.009999999999999997,left,left,0.4251308220000283,correct,1
Block 3: Monocular_Standard,97,0.009999999999999997,right,right,0.4044384019998688,correct,1
Block 3: Monocular_Standard,98,0.009999999999999997,right,right,0.5972365669999817,correct,1
Block 3: Monocular_Standard,99,-3.469446951953614e-18,right,right,0.35381904099995154,correct,1
Block 3: Monocular_Standard,100,-3.469446951953614e-18,right,right,0.5975507009998182,correct,1
Block 3: Monocular_Standard,101,-0.010000000000000004,right,right,0.5168780919998426,correct,1
Block 3: Monocular_Standard,102,-0.010000000000000004,right,right,0.485823886000162,correct,1
Block 3: Monocular_Standard,103,-0.020000000000000004,right,right,0.303131527000005,correct,1
Block 3: Monocular_Standard,104,-0.020000000000000004,left,right,0.606827691000035,false,0
Block 3: Monocular_Standard,105,-0.010000000000000004,right,right,0.5869094730001052,correct,1
Block 3: Monocular_Standard,106,3.469446951953614e-18,right,left,0.3848542450000423,false,0
Block 3: Monocular_Standard,107,-0.010000000000000004,right,right,0.44496473300023354,correct,1
Block 3: Monocular_Standard,108,-0.009999999999999997,right,left,0.5467884149998099,false,0
Block 3: Monocular_Standard,109,-0.019999999999999997,left,left,0.5360125209999751,correct,1
Block 3: Monocular_Standard,110,-0.019999999999999997,left,left,0.4045966630001203,correct,1
Block 3: Monocular_Standard,111,-0.009999999999999997,left,left,0.4453828670002622,correct,1
Block 3: Monocular_Standard,112,-0.009999999999999997,right,left,0.47651468999993085,false,0
Block 3: Monocular_Standard,113,-0.019999999999999997,right,left,0.3438422469998841,false,0
Block 3: Monocular_Standard,114,-0.020000000000000004,left,right,0.39456233300006716,false,0
Block 3: Monocular_Standard,115,-0.010000000000000004,left,right,0.6982354030001261,false,0
Block 3: Monocular_Standard,116,-3.469446951953614e-18,right,right,0.43563640499996836,correct,1
Block 3: Monocular_Standard,117,-0.03,left,left,0.47527753899976233,correct,1
Block 3: Monocular_Standard,118,-0.03,right,left,0.4149064850003015,false,0
Block 3: Monocular_Standard,119,-0.04,left,left,0.5057311479999953,correct,1
Block 3: Monocular_Standard,120,-3.469446951953614e-18,right,right,0.49634957999978724,correct,1
Block 3: Monocular_Standard,121,-0.04,left,left,0.4454781979998188,correct,1
Block 3: Monocular_Standard,122,-0.03,right,left,0.3944791600001736,false,0
Block 3: Monocular_Standard,123,-0.010000000000000004,right,right,0.5363025139999991,correct,1
Block 3: Monocular_Standard,124,-0.04,left,left,0.37426732600033574,correct,1
Block 3: Monocular_Standard,125,-0.010000000000000004,right,right,0.2730513589999646,correct,1
Block 3: Monocular_Standard,126,-0.04,left,left,0.4146916240001701,correct,1
Block 3: Monocular_Standard,127,-0.020000000000000004,right,right,0.3238236870001856,correct,1
Block 3: Monocular_Standard,128,-0.020000000000000004,right,right,0.5769945699998971,correct,1
Block 3: Monocular_Standard,129,-0.030000000000000006,left,right,0.4045667340001273,false,0
Block 3: Monocular_Standard,130,-0.020000000000000004,left,right,0.5872550550002416,false,0
Block 3: Monocular_Standard,131,-0.010000000000000004,left,right,0.5867530059999808,false,0
Block 3: Monocular_Standard,132,-3.469446951953614e-18,left,right,0.6579532169998856,false,0
Block 3: Monocular_Standard,133,0.009999999999999997,right,right,0.33376605400007975,correct,1
Block 3: Monocular_Standard,134,0.009999999999999997,right,right,0.617745159000151,correct,1
Block 3: Monocular_Standard,135,-3.469446951953614e-18,right,right,0.4548681100000067,correct,1
Block 3: Monocular_Standard,136,-3.469446951953614e-18,right,right,0.30351474700000836,correct,1
Block 3: Monocular_Standard,137,-0.010000000000000004,right,right,0.2628816219998953,correct,1
Block 3: Monocular_Standard,138,-0.03,left,left,0.5057642839997243,correct,1
Block 3: Monocular_Standard,139,-0.010000000000000004,left,right,0.49628070199969443,false,0
Block 3: Monocular_Standard,140,-0.03,right,left,0.31359910400033186,false,0
Block 3: Monocular_Standard,141,-0.04,left,left,0.4560884900001838,correct,1
Block 3: Monocular_Standard,142,-3.469446951953614e-18,left,right,0.7391848070001288,false,0
Block 3: Monocular_Standard,143,0.009999999999999997,right,right,0.6377434629998788,correct,1
Block 3: Monocular_Standard,144,0.009999999999999997,left,right,0.648521840000285,false,0
Block 3: Monocular_Standard,145,-0.04,left,left,0.45498691900002086,correct,1
Block 3: Monocular_Standard,146,0.019999999999999997,right,right,0.860566148000089,correct,1
Block 3: Monocular_Standard,147,-0.03,left,left,0.45520459199997276,correct,1
Block 3: Monocular_Standard,148,0.019999999999999997,left,right,0.41499265099992044,false,0
Block 3: Monocular_Standard,149,0.03,right,right,0.4953021549999903,correct,1
Block 3: Monocular_Standard,150,-0.03,left,left,0.43504741200013086,correct,1
Block 3: Monocular_Standard,151,-0.019999999999999997,left,left,0.5363722160000179,correct,1
Block 3: Monocular_Standard,152,0.03,right,right,0.5162718110000242,correct,1
Block 3: Monocular_Standard,153,0.019999999999999997,left,right,0.44531659099993703,false,0
Block 3: Monocular_Standard,154,-0.019999999999999997,left,left,0.45593837499973233,correct,1
Block 3: Monocular_Standard,155,0.03,right,right,0.38445044600030087,correct,1
Block 3: Monocular_Standard,156,0.03,right,right,0.4350287950001075,correct,1
Block 3: Monocular_Standard,157,-0.009999999999999997,left,left,0.7288102780003101,correct,1
Block 3: Monocular_Standard,158,0.019999999999999997,right,right,0.41483646799997587,correct,1
Block 3: Monocular_Standard,159,-0.009999999999999997,right,left,0.576367750999907,false,0
Block 3: Monocular_Standard,160,0.019999999999999997,right,right,0.48535531099969376,correct,1
Block 3: Monocular_Standard,161,-0.019999999999999997,left,left,0.45547683899985714,correct,1
Block 3: Monocular_Standard,162,-0.019999999999999997,left,left,0.41538116199990327,correct,1
Block 3: Monocular_Standard,163,-0.009999999999999997,left,left,0.5363573900003757,correct,1
Block 3: Monocular_Standard,164,-0.009999999999999997,right,left,0.3235882240001047,false,0
Block 3: Monocular_Standard,165,-0.019999999999999997,left,left,0.4150752229998034,correct,1
Block 3: Monocular_Standard,166,0.009999999999999997,right,right,0.5872007570001188,correct,1
Block 3: Monocular_Standard,167,-0.019999999999999997,left,left,0.6177394470000763,correct,1
Block 3: Monocular_Standard,168,0.009999999999999997,right,right,0.4754697789999227,correct,1
Block 3: Monocular_Standard,169,-0.009999999999999997,right,left,0.41511462500011476,false,0
Block 4: Monocular_Crowded,0,0.15,right,right,0.6785057329998381,correct,1
Block 4: Monocular_Crowded,1,-0.15,left,left,0.4451962879998064,correct,1
Block 4: Monocular_Crowded,2,0.15,right,right,0.3944626809998226,correct,1
Block 4: Monocular_Crowded,3,0.13999999999999999,right,right,0.2734915739997632,correct,1
Block 4: Monocular_Crowded,4,-0.15,left,left,0.3435878630002662,correct,1
Block 4: Monocular_Crowded,5,-0.13999999999999999,left,left,0.2930593789997147,correct,1
Block 4: Monocular_Crowded,6,0.13999999999999999,right,right,0.33358243400016363,correct,1
Block 4: Monocular_Crowded,7,0.12999999999999998,right,right,0.283059910999782,correct,1
Block 4: Monocular_Crowded,8,0.12999999999999998,right,right,0.32336412399990877,correct,1
Block 4: Monocular_Crowded,9,-0.13999999999999999,left,left,0.34361962000002677,correct,1
Block 4: Monocular_Crowded,10,-0.12999999999999998,left,left,0.3539100180000787,correct,1
Block 4: Monocular_Crowded,11,0.11999999999999998,left,right,0.2931121480000911,false,0
Block 4: Monocular_Crowded,12,0.12999999999999998,right,right,0.3443986870001936,correct,1
Block 4: Monocular_Crowded,13,-0.12999999999999998,left,left,0.32362066299992875,correct,1
Block 4: Monocular_Crowded,14,0.12999999999999998,right,right,0.37432757000033234,correct,1
Block 4: Monocular_Crowded,15,-0.11999999999999998,left,left,0.46588444000008167,correct,1
Block 4: Monocular_Crowded,16,-0.11999999999999998,right,left,0.3448098850003589,false,0
Block 4: Monocular_Crowded,17,0.11999999999999998,right,right,0.4550707189996501,correct,1
Block 4: Monocular_Crowded,18,0.11999999999999998,right,right,0.353862774999925,correct,1
Block 4: Monocular_Crowded,19,-0.12999999999999998,right,left,0.3745380219997969,false,0
Block 4: Monocular_Crowded,20,-0.13999999999999999,left,left,0.3748194289996718,correct,1
Block 4: Monocular_Crowded,21,0.10999999999999999,right,right,0.4044976290001614,correct,1
Block 4: Monocular_Crowded,22,0.10999999999999999,right,right,0.4249343010001212,correct,1
Block 4: Monocular_Crowded,23,0.09999999999999999,right,right,0.4249287979996552,correct,1
Block 4: Monocular_Crowded,24,-0.13999999999999999,left,left,0.4353229229996032,correct,1
Block 4: Monocular_Crowded,25,0.09999999999999999,right,right,0.4356112000000394,correct,1
Block 4: Monocular_Crowded,26,0.09,right,right,0.3953632170000674,correct,1
Block 4: Monocular_Crowded,27,0.09,right,right,0.3643504449996726,correct,1
Block 4: Monocular_Crowded,28,0.08,right,right,0.25310987100010607,correct,1
Block 4: Monocular_Crowded,29,-0.12999999999999998,left,left,0.41465578800034564,correct,1
Block 4: Monocular_Crowded,30,0.08,right,right,0.28323637899984533,correct,1
Block 4: Monocular_Crowded,31,-0.12999999999999998,left,left,0.4145498099996985,correct,1
Block 4: Monocular_Crowded,32,0.07,right,right,0.3740936949998286,correct,1
Block 4: Monocular_Crowded,33,0.07,right,right,0.40474368100012725,correct,1
Block 4: Monocular_Crowded,34,-0.11999999999999998,left,left,0.44511570899976505,correct,1
Block 4: Monocular_Crowded,35,0.060000000000000005,right,right,0.5471365839998725,correct,1
Block 4: Monocular_Crowded,36,0.060000000000000005,right,right,0.4046894089997295,correct,1
Block 4: Monocular_Crowded,37,-0.11999999999999998,left,left,0.3335157530000288,correct,1
Block 4: Monocular_Crowded,38,0.05,right,right,0.6577892610002891,correct,1
Block 4: Monocular_Crowded,39,-0.10999999999999999,left,left,0.40460766099977263,correct,1
Block 4: Monocular_Crowded,40,0.05,right,right,0.37506684800018775,correct,1
Block 4: Monocular_Crowded,41,0.04,right,right,0.5263024000000769,correct,1
Block 4: Monocular_Crowded,42,0.04,left,right,0.5063036380001904,false,0
Block 4: Monocular_Crowded,43,-0.10999999999999999,left,left,0.4351048999997147,correct,1
Block 4: Monocular_Crowded,44,-0.09999999999999999,left,left,0.4046605140001702,correct,1
Block 4: Monocular_Crowded,45,-0.09999999999999999,left,left,0.3847031240002252,correct,1
Block 4: Monocular_Crowded,46,0.05,left,right,0.3135273339999003,false,0
Block 4: Monocular_Crowded,47,0.060000000000000005,left,right,0.40489522300003955,false,0
Block 4: Monocular_Crowded,48,-0.09,left,left,0.4258206100003008,correct,1
Block 4: Monocular_Crowded,49,0.07,right,right,0.3337022169998818,correct,1
Block 4: Monocular_Crowded,50,-0.09,left,left,0.38436128900002586,correct,1
Block 4: Monocular_Crowded,51,0.07,right,right,0.42497543199988286,correct,1
Block 4: Monocular_Crowded,52,0.060000000000000005,right,right,0.4351343970001835,correct,1
Block 4: Monocular_Crowded,53,0.060000000000000005,left,right,0.5665665270003046,false,0
Block 4: Monocular_Crowded,54,0.07,right,right,0.3945366190000641,correct,1
Block 4: Monocular_Crowded,55,-0.08,left,left,0.4355997650000063,correct,1
Block 4: Monocular_Crowded,56,0.07,right,right,0.41481007599986697,correct,1
Block 4: Monocular_Crowded,57,0.060000000000000005,right,right,0.43561736299989207,correct,1
Block 4: Monocular_Crowded,58,0.060000000000000005,right,right,0.384070692000023,correct,1
Block 4: Monocular_Crowded,59,-0.08,left,left,0.36441216699995493,correct,1
Block 4: Monocular_Crowded,60,0.05,right,right,0.6174743699998544,correct,1
Block 4: Monocular_Crowded,61,-0.07,left,left,0.31337980500029516,correct,1
Block 4: Monocular_Crowded,62,0.05,right,right,0.4351647920002506,correct,1
Block 4: Monocular_Crowded,63,-0.07,left,left,0.40445445499972266,correct,1
Block 4: Monocular_Crowded,64,0.04,left,right,0.39501979300030143,false,0
Block 4: Monocular_Crowded,65,-0.060000000000000005,left,left,0.3342468209998515,correct,1
Block 4: Monocular_Crowded,66,-0.060000000000000005,left,left,0.3538920800001506,correct,1
Block 4: Monocular_Crowded,67,0.05,left,right,0.35366579499986983,false,0
Block 4: Monocular_Crowded,68,-0.05,left,left,0.3855790900001921,correct,1
Block 4: Monocular_Crowded,69,-0.05,left,left,0.31378217400015274,correct,1
Block 4: Monocular_Crowded,70,-0.04,left,left,0.34411368300015965,correct,1
Block 4: Monocular_Crowded,71,0.060000000000000005,right,right,0.35430382599997756,correct,1
Block 4: Monocular_Crowded,72,-0.04,left,left,0.33382447600024534,correct,1
Block 4: Monocular_Crowded,73,0.060000000000000005,right,right,0.3438943679998374,correct,1
Block 4: Monocular_Crowded,74,-0.03,left,left,0.36438408300000447,correct,1
Block 4: Monocular_Crowded,75,-0.03,left,left,0.3237384019998899,correct,1
Block 4: Monocular_Crowded,76,-0.019999999999999997,right,left,0.5056914199999483,false,0
Block 4: Monocular_Crowded,77,0.05,right,right,0.39437223499999163,correct,1
Block 4: Monocular_Crowded,78,0.05,left,right,0.3637498719999712,false,0
Block 4: Monocular_Crowded,79,-0.03,left,left,0.34388488300010067,correct,1
Block 4: Monocular_Crowded,80,0.060000000000000005,left,right,0.5769747579997784,false,0
Block 4: Monocular_Crowded,81,0.07,right,right,0.394779705000019,correct,1
Block 4: Monocular_Crowded,82,-0.03,left,left,0.3340072589999181,correct,1
Block 4: Monocular_Crowded,83,0.07,left,right,0.3237754780002433,false,0
Block 4: Monocular_Crowded,84,-0.019999999999999997,right,left,0.343868539000141,false,0
Block 4: Monocular_Crowded,85,0.08,right,right,0.414826291999816,correct,1
Block 4: Monocular_Crowded,86,-0.03,left,left,0.4351402950001102,correct,1
Block 4: Monocular_Crowded,87,-0.03,left,left,0.4655289859997538,correct,1
Block 4: Monocular_Crowded,88,-0.019999999999999997,left,left,0.64766156900032,correct,1
Block 4: Monocular_Crowded,89,-0.019999999999999997,left,left,3.47418709700014,correct,1
Block 4: Monocular_Crowded,90,0.08,right,right,0.404634970999723,correct,1
Block 4: Monocular_Crowded,91,0.07,right,right,0.35434795399987706,correct,1
Block 4: Monocular_Crowded,92,-0.009999999999999997,left,left,0.5161157769998681,correct,1
Block 4: Monocular_Crowded,93,-0.009999999999999997,right,left,0.40454692800039993,false,0
Block 4: Monocular_Crowded,94,-0.019999999999999997,right,left,0.3132270209998751,false,0
Block 4: Monocular_Crowded,95,0.07,right,right,0.37435197600007086,correct,1
Block 4: Monocular_Crowded,96,0.060000000000000005,right,right,0.3642708480001602,correct,1
Block 4: Monocular_Crowded,97,-0.03,left,left,0.37443938900014473,correct,1
Block 4: Monocular_Crowded,98,0.060000000000000005,right,right,0.3032261000003018,correct,1
Block 4: Monocular_Crowded,99,-0.03,right,left,0.5265045599999212,false,0
Block 4: Monocular_Crowded,100,0.05,right,right,0.46576986299987766,correct,1
Block 4: Monocular_Crowded,101,0.05,left,right,0.47548383000003014,false,0
Block 4: Monocular_Crowded,102,-0.04,left,left,0.505929124999966,correct,1
Block 4: Monocular_Crowded,103,-0.04,left,left,0.4044528409999657,correct,1
Block 4: Monocular_Crowded,104,-0.03,right,left,0.3031388119998155,false,0
Block 4: Monocular_Crowded,105,-0.04,left,left,0.44591055999990203,correct,1
Block 4: Monocular_Crowded,106,0.060000000000000005,left,right,0.5872512609998921,false,0
Block 4: Monocular_Crowded,107,-0.04,left,left,0.4148298209997847,correct,1
Block 4: Monocular_Crowded,108,-0.03,left,left,0.34417433699991307,correct,1
Block 4: Monocular_Crowded,109,0.07,right,right,0.3744934840001406,correct,1
Block 4: Monocular_Crowded,110,-0.03,left,left,0.3540960330001326,correct,1
Block 4: Monocular_Crowded,111,0.07,right,right,0.5869512839999516,correct,1
Block 4: Monocular_Crowded,112,0.060000000000000005,right,right,0.37422275399967475,correct,1
Block 4: Monocular_Crowded,113,-0.019999999999999997,left,left,0.4346110899996347,correct,1
Block 4: Monocular_Crowded,114,-0.019999999999999997,left,left,0.6474664130000747,correct,1
Block 4: Monocular_Crowded,115,0.060000000000000005,right,right,0.34438111300005403,correct,1
Block 4: Monocular_Crowded,116,0.05,right,right,0.3333815979999599,correct,1
Block 4: Monocular_Crowded,117,0.05,right,right,0.4857456640002056,correct,1
Block 4: Monocular_Crowded,118,-0.009999999999999997,left,left,0.4047934879999957,correct,1
Block 4: Monocular_Crowded,119,0.04,left,right,0.4351836219998404,false,0
Block 4: Monocular_Crowded,120,-0.009999999999999997,right,left,0.3132763899998281,false,0
Block 4: Monocular_Crowded,121,-0.019999999999999997,right,left,0.4956206850001763,false,0
Block 4: Monocular_Crowded,122,-0.03,right,left,0.3949994930003413,false,0
Block 4: Monocular_Crowded,123,0.05,right,right,0.45539804300005926,correct,1
Block 4: Monocular_Crowded,124,-0.04,left,left,0.43615092099980757,correct,1
Block 4: Monocular_Crowded,125,-0.04,left,left,0.3640819089996512,correct,1
Block 4: Monocular_Crowded,126,-0.03,left,left,0.374584753000363,correct,1
Block 4: Monocular_Crowded,127,-0.03,left,left,0.35399647499980347,correct,1
Block 4: Monocular_Crowded,128,0.05,left,right,0.414524781000182,false,0
Block 4: Monocular_Crowded,129,0.060000000000000005,right,right,0.46519970999997895,correct,1
Block 4: Monocular_Crowded,130,-0.019999999999999997,left,left,0.5056377239998255,correct,1
Block 4: Monocular_Crowded,131,0.060000000000000005,right,right,0.3742699980002726,correct,1
Block 4: Monocular_Crowded,132,0.05,right,right,0.41501936900021974,correct,1
Block 4: Monocular_Crowded,133,0.05,right,right,0.4249860350000745,correct,1
Block 4: Monocular_Crowded,134,-0.019999999999999997,left,left,0.5867562319999706,correct,1
Block 4: Monocular_Crowded,135,0.04,right,right,0.364191559000119,correct,1
Block 4: Monocular_Crowded,136,-0.009999999999999997,right,left,0.4965845420001642,false,0
Block 4: Monocular_Crowded,137,0.04,right,right,0.40469919299994217,correct,1
Block 4: Monocular_Crowded,138,-0.019999999999999997,left,left,0.4046585379996941,correct,1
Block 4: Monocular_Crowded,139,-0.019999999999999997,right,left,0.39483024599985583,false,0
Block 4: Monocular_Crowded,140,-0.03,right,left,0.5262368549997518,false,0
Block 4: Monocular_Crowded,141,-0.04,left,left,0.3741360229996644,correct,1
Block 4: Monocular_Crowded,142,-0.04,left,left,0.3942968970000038,correct,1
Block 4: Monocular_Crowded,143,-0.03,left,left,0.4854484119996414,correct,1
Block 4: Monocular_Crowded,144,-0.03,left,left,0.4449072289999094,correct,1
Block 4: Monocular_Crowded,145,-0.019999999999999997,left,left,0.40503411899999264,correct,1
Block 4: Monocular_Crowded,146,-0.019999999999999997,left,left,0.5458922939997137,correct,1
Block 4: Monocular_Crowded,147,0.03,left,right,0.3641107609996652,false,0
Block 4: Monocular_Crowded,148,0.04,right,right,0.3744490210001459,correct,1
Block 4: Monocular_Crowded,149,-0.009999999999999997,left,left,0.586724231000062,correct,1
Block 4: Monocular_Crowded,150,-0.009999999999999997,right,left,0.526527858999998,false,0
Block 4: Monocular_Crowded,151,0.04,left,right,0.46508269099967947,false,0
Block 4: Monocular_Crowded,152,-0.019999999999999997,right,left,0.637141315000008,false,0
Block 4: Monocular_Crowded,153,-0.03,right,left,0.46516191399996387,false,0
Block 4: Monocular_Crowded,154,0.05,left,right,0.516283669999666,false,0
Block 4: Monocular_Crowded,155,-0.04,left,left,0.3744860339998013,correct,1
Block 4: Monocular_Crowded,156,0.060000000000000005,left,right,0.5162108859999535,false,0
Block 4: Monocular_Crowded,157,0.07,right,right,0.37444193500004985,correct,1
Block 4: Monocular_Crowded,158,-0.04,left,left,0.4855548949999502,correct,1
Block 4: Monocular_Crowded,159,-0.03,left,left,0.5061128440001994,correct,1
Block 4: Monocular_Crowded,160,0.07,right,right,0.45547777599995243,correct,1
Block 4: Monocular_Crowded,161,-0.03,right,left,0.5868545570001515,false,0
Block 4: Monocular_Crowded,162,-0.04,left,left,0.3944452000000638,correct,1
Block 4: Monocular_Crowded,163,0.060000000000000005,right,right,0.3435390049999114,correct,1
Block 4: Monocular_Crowded,164,0.060000000000000005,right,right,0.4044964939998863,correct,1
Block 4: Monocular_Crowded,165,-0.04,left,left,0.4145314120000876,correct,1
Block 4: Monocular_Crowded,166,0.05,right,right,0.4350499059996764,correct,1
Block 4: Monocular_Crowded,167,0.05,left,right,0.40456928899993727,false,0
Block 4: Monocular_Crowded,168,0.060000000000000005,right,right,0.4047425040002963,correct,1
Block 4: Monocular_Crowded,169,0.060000000000000005,right,right,0.3743711900001472,correct,1
