label,trials,offset,keys,direction,response_time,accuracy,response_numeric
Block 1: Binocular_Standard,0,0.2,right,right,29.40034612599993,correct,1
Block 1: Binocular_Standard,1,0.2,right,right,1.538895042999684,correct,1
Block 1: Binocular_Standard,2,-0.2,left,left,0.647898802999407,correct,1
Block 1: Binocular_Standard,3,-0.2,left,left,0.5569538310001008,correct,1
Block 1: Binocular_Standard,4,-0.19,left,left,1.001791788000446,correct,1
Block 1: Binocular_Standard,5,0.19,right,right,0.5767986359996939,correct,1
Block 1: Binocular_Standard,6,0.19,right,right,0.5562288840001202,correct,1
Block 1: Binocular_Standard,7,-0.19,left,left,0.5563936139997168,correct,1
Block 1: Binocular_Standard,8,-0.18,left,left,1.3968098610002926,correct,1
Block 1: Binocular_Standard,9,-0.18,left,left,1.4276631909997377,correct,1
Block 1: Binocular_Standard,10,-0.16999999999999998,left,left,1.1743681569996625,correct,1
Block 1: Binocular_Standard,11,-0.16999999999999998,left,left,0.5872461270000713,correct,1
Block 1: Binocular_Standard,12,0.18,right,right,0.5665130309998858,correct,1
Block 1: Binocular_Standard,13,-0.15999999999999998,left,left,0.5463549679998323,correct,1
Block 1: Binocular_Standard,14,-0.15999999999999998,left,left,0.47578234799948405,correct,1
Block 1: Binocular_Standard,15,-0.14999999999999997,left,left,0.3950489290000405,correct,1
Block 1: Binocular_Standard,16,-0.14999999999999997,left,left,0.4449627589992815,correct,1
Block 1: Binocular_Standard,17,-0.13999999999999996,right,left,0.7491354730000239,false,0
Block 1: Binocular_Standard,18,-0.14999999999999997,left,left,0.6891865819998202,correct,1
Block 1: Binocular_Standard,19,0.18,right,right,0.4654810350002663,correct,1
Block 1: Binocular_Standard,20,-0.14999999999999997,left,left,0.44538576700051635,correct,1
Block 1: Binocular_Standard,21,0.16999999999999998,right,right,0.7997241719995145,correct,1
Block 1: Binocular_Standard,22,0.16999999999999998,right,right,0.5260294230001819,correct,1
Block 1: Binocular_Standard,23,0.15999999999999998,right,right,0.49568561500018404,correct,1
Block 1: Binocular_Standard,24,0.15999999999999998,right,right,0.5877091580005072,correct,1
Block 1: Binocular_Standard,25,-0.13999999999999996,left,left,0.525840960000096,correct,1
Block 1: Binocular_Standard,26,0.14999999999999997,right,right,0.5468100420002884,correct,1
Block 1: Binocular_Standard,27,-0.13999999999999996,left,left,0.42505357899972296,correct,1
Block 1: Binocular_Standard,28,-0.12999999999999995,left,left,0.4147071719999076,correct,1
Block 1: Binocular_Standard,29,-0.12999999999999995,left,left,0.4956619390004562,correct,1
Block 1: Binocular_Standard,30,0.14999999999999997,right,right,0.39436971899976925,correct,1
Block 1: Binocular_Standard,31,-0.11999999999999995,left,left,0.3844076330005919,correct,1
Block 1: Binocular_Standard,32,-0.11999999999999995,right,left,0.9414147449997472,false,0
Block 1: Binocular_Standard,33,-0.12999999999999995,left,left,0.4351335649998873,correct,1
Block 1: Binocular_Standard,34,-0.12999999999999995,left,left,0.39418759000000136,correct,1
Block 1: Binocular_Standard,35,0.13999999999999996,right,right,0.4956932710001638,correct,1
Block 1: Binocular_Standard,36,0.13999999999999996,right,right,0.4860896670006696,correct,1
Block 1: Binocular_Standard,37,-0.11999999999999995,left,left,0.43526321100034693,correct,1
Block 1: Binocular_Standard,38,0.12999999999999995,right,right,0.32408683199992083,correct,1
Block 1: Binocular_Standard,39,0.12999999999999995,right,right,0.3947703419999016,correct,1
Block 1: Binocular_Standard,40,0.11999999999999995,right,right,0.5157205610003075,correct,1
Block 1: Binocular_Standard,41,0.11999999999999995,right,right,0.3443546869993952,correct,1
Block 1: Binocular_Standard,42,-0.11999999999999995,left,left,0.3237700700001369,correct,1
Block 1: Binocular_Standard,43,-0.10999999999999996,left,left,0.45544633000008616,correct,1
Block 1: Binocular_Standard,44,-0.10999999999999996,left,left,0.31339130099968315,correct,1
Block 1: Binocular_Standard,45,-0.09999999999999996,left,left,0.38424723200023436,correct,1
Block 1: Binocular_Standard,46,0.10999999999999996,right,right,0.2932026340004086,correct,1
Block 1: Binocular_Standard,47,0.10999999999999996,right,right,0.33377371699953073,correct,1
Block 1: Binocular_Standard,48,0.09999999999999996,right,right,0.31429252899943094,correct,1
Block 1: Binocular_Standard,49,0.09999999999999996,right,right,0.3542197880005915,correct,1
Block 1: Binocular_Standard,50,0.08999999999999997,right,right,0.41487519500060444,correct,1
Block 1: Binocular_Standard,51,-0.09999999999999996,left,left,0.3336573650003629,correct,1
Block 1: Binocular_Standard,52,-0.08999999999999997,right,left,0.8001925670005221,false,0
Block 1: Binocular_Standard,53,0.08999999999999997,right,right,0.4048087609999129,correct,1
Block 1: Binocular_Standard,54,0.07999999999999997,right,right,0.3336770329997307,correct,1
Block 1: Binocular_Standard,55,0.07999999999999997,right,right,0.33376061400031176,correct,1
Block 1: Binocular_Standard,56,-0.09999999999999996,left,left,0.39436053600002197,correct,1
Block 1: Binocular_Standard,57,-0.09999999999999996,left,left,0.46540102700055286,correct,1
Block 1: Binocular_Standard,58,0.06999999999999998,right,right,0.44563988800018706,correct,1
Block 1: Binocular_Standard,59,-0.08999999999999997,left,left,0.4963485540001784,correct,1
Block 1: Binocular_Standard,60,0.06999999999999998,right,right,0.4148293020007259,correct,1
Block 1: Binocular_Standard,61,-0.08999999999999997,left,left,0.5769254899996668,correct,1
Block 1: Binocular_Standard,62,0.05999999999999998,right,right,0.37444737300029374,correct,1
Block 1: Binocular_Standard,63,-0.07999999999999997,left,left,0.40466237000055116,correct,1
Block 1: Binocular_Standard,64,-0.07999999999999997,left,left,0.47553697300008935,correct,1
Block 1: Binocular_Standard,65,-0.06999999999999998,left,left,0.41486349600018,correct,1
Block 1: Binocular_Standard,66,0.05999999999999998,right,right,0.3845902919993023,correct,1
Block 1: Binocular_Standard,67,0.049999999999999975,right,right,0.4047780270002477,correct,1
Block 1: Binocular_Standard,68,0.049999999999999975,right,right,0.4045784370000547,correct,1
Block 1: Binocular_Standard,69,-0.06999999999999998,left,left,0.3839999740002895,correct,1
Block 1: Binocular_Standard,70,0.03999999999999997,right,right,0.5463576289994307,correct,1
Block 1: Binocular_Standard,71,0.03999999999999997,right,right,0.39462080399971455,correct,1
Block 1: Binocular_Standard,72,-0.05999999999999998,left,left,0.5368417420004334,correct,1
Block 1: Binocular_Standard,73,-0.05999999999999998,left,left,0.4953827849994923,correct,1
Block 1: Binocular_Standard,74,-0.049999999999999975,left,left,0.42517482200037193,correct,1
Block 1: Binocular_Standard,75,-0.049999999999999975,left,left,0.7797018589999425,correct,1
Block 1: Binocular_Standard,76,-0.03999999999999997,left,left,0.5362450679995163,correct,1
Block 1: Binocular_Standard,77,-0.03999999999999997,left,left,0.8909276740005225,correct,1
Block 1: Binocular_Standard,78,0.02999999999999997,left,right,1.3676334299998416,false,0
Block 1: Binocular_Standard,79,0.03999999999999997,right,right,0.47577778800041415,correct,1
Block 1: Binocular_Standard,80,-0.02999999999999997,right,left,0.7894289360001494,false,0
Block 1: Binocular_Standard,81,0.03999999999999997,right,right,0.4349805110005036,correct,1
Block 1: Binocular_Standard,82,0.02999999999999997,right,right,0.5262911330000861,correct,1
Block 1: Binocular_Standard,83,0.02999999999999997,right,right,0.43506272099966736,correct,1
Block 1: Binocular_Standard,84,0.01999999999999997,right,right,0.33376471500014304,correct,1
Block 1: Binocular_Standard,85,0.01999999999999997,right,right,0.4245769119997931,correct,1
Block 1: Binocular_Standard,86,0.009999999999999969,right,right,0.5159751959999994,correct,1
Block 1: Binocular_Standard,87,0.009999999999999969,right,right,0.5052416669996092,correct,1
Block 1: Binocular_Standard,88,-0.03999999999999997,left,left,0.3843789160000597,correct,1
Block 1: Binocular_Standard,89,-3.122502256758253e-17,left,right,0.5463770830001522,false,0
Block 1: Binocular_Standard,90,0.009999999999999969,left,right,0.6278371370008244,false,0
Block 1: Binocular_Standard,91,0.01999999999999997,right,right,0.4450952010001856,correct,1
Block 1: Binocular_Standard,92,0.01999999999999997,right,right,0.45525965900014853,correct,1
Block 1: Binocular_Standard,93,0.009999999999999969,right,right,0.4956788580002467,correct,1
Block 1: Binocular_Standard,94,0.009999999999999969,right,right,0.5371962899998834,correct,1
Block 1: Binocular_Standard,95,-0.03999999999999997,left,left,0.5365257560006285,correct,1
Block 1: Binocular_Standard,96,-0.02999999999999997,left,left,0.9413234149997152,correct,1
Block 1: Binocular_Standard,97,-3.122502256758253e-17,left,right,0.6171411589994023,false,0
Block 1: Binocular_Standard,98,0.009999999999999969,right,right,0.46563337599945953,correct,1
Block 1: Binocular_Standard,99,0.009999999999999969,right,right,0.42500307299997075,correct,1
Block 1: Binocular_Standard,100,-0.02999999999999997,left,left,0.4754826660000617,correct,1
Block 1: Binocular_Standard,101,-3.122502256758253e-17,right,right,1.1237844959996437,correct,1
Block 1: Binocular_Standard,102,-3.122502256758253e-17,right,right,0.47559995700066793,correct,1
Block 1: Binocular_Standard,103,-0.010000000000000031,right,right,0.4351899909997883,correct,1
Block 1: Binocular_Standard,104,-0.01999999999999997,right,left,0.41474336800001765,false,0
Block 1: Binocular_Standard,105,-0.010000000000000031,right,right,0.4252215319993411,correct,1
Block 1: Binocular_Standard,106,-0.02999999999999997,left,left,0.5168885059993045,correct,1
Block 1: Binocular_Standard,107,-0.02000000000000003,left,right,0.5665514769998481,false,0
Block 1: Binocular_Standard,108,-0.02999999999999997,right,left,0.6275829979995251,false,0
Block 1: Binocular_Standard,109,-0.03999999999999997,left,left,0.46609113399972557,correct,1
Block 1: Binocular_Standard,110,-0.010000000000000031,right,right,0.7088920169999255,correct,1
Block 1: Binocular_Standard,111,-0.010000000000000031,right,right,0.5867459539995252,correct,1
Block 1: Binocular_Standard,112,-0.03999999999999997,left,left,0.47556648399950063,correct,1
Block 1: Binocular_Standard,113,-0.02999999999999997,left,left,0.9310331619999488,correct,1
Block 1: Binocular_Standard,114,-0.02999999999999997,left,left,0.6072125929995309,correct,1
Block 1: Binocular_Standard,115,-0.01999999999999997,left,left,0.4654338039999857,correct,1
Block 1: Binocular_Standard,116,-0.02000000000000003,left,right,0.5063607980000597,false,0
Block 1: Binocular_Standard,117,-0.01999999999999997,left,left,0.38444897400040645,correct,1
Block 1: Binocular_Standard,118,-0.009999999999999969,left,left,0.5365207570002894,correct,1
Block 1: Binocular_Standard,119,-0.009999999999999969,left,left,0.4755041939997682,correct,1
Block 2: Binocular_Crowded,0,-0.2,left,left,1.8622374870001295,correct,1
Block 2: Binocular_Crowded,1,-0.2,left,left,0.6780943240000852,correct,1
Block 2: Binocular_Crowded,2,0.2,right,right,0.7185616200004006,correct,1
Block 2: Binocular_Crowded,3,-0.19,left,left,0.5868513260002146,correct,1
Block 2: Binocular_Crowded,4,-0.19,left,left,0.5161229790001016,correct,1
Block 2: Binocular_Crowded,5,0.2,right,right,0.44496212000012747,correct,1
Block 2: Binocular_Crowded,6,-0.18,left,left,0.38497549099975004,correct,1
Block 2: Binocular_Crowded,7,0.19,right,right,0.3440996590006762,correct,1
Block 2: Binocular_Crowded,8,-0.18,left,left,0.32361963899984403,correct,1
Block 2: Binocular_Crowded,9,-0.16999999999999998,left,left,0.3235094850006135,correct,1
Block 2: Binocular_Crowded,10,-0.16999999999999998,left,left,0.2830576070000461,correct,1
Block 2: Binocular_Crowded,11,-0.15999999999999998,left,left,0.26301596899975266,correct,1
Block 2: Binocular_Crowded,12,-0.15999999999999998,left,left,0.20210563499949785,correct,1
Block 2: Binocular_Crowded,13,-0.14999999999999997,left,left,0.1615253890004169,correct,1
Block 2: Binocular_Crowded,14,0.19,right,right,0.27328755799953797,correct,1
Block 2: Binocular_Crowded,15,0.18,right,right,0.15140544500081887,correct,1
Block 2: Binocular_Crowded,16,-0.14999999999999997,left,left,0.31355523700040067,correct,1
Block 2: Binocular_Crowded,17,0.18,right,right,0.1919675230001303,correct,1
Block 2: Binocular_Crowded,18,-0.13999999999999996,left,left,0.3236245170000984,correct,1
Block 2: Binocular_Crowded,19,-0.13999999999999996,left,left,0.41616224300014437,correct,1
Block 2: Binocular_Crowded,20,-0.12999999999999995,left,left,0.3640158349999183,correct,1
Block 2: Binocular_Crowded,21,-0.12999999999999995,left,left,0.4552687120003611,correct,1
Block 2: Binocular_Crowded,22,-0.11999999999999995,left,left,0.4145555349996357,correct,1
Block 2: Binocular_Crowded,23,0.16999999999999998,right,right,0.3848153779999848,correct,1
Block 2: Binocular_Crowded,24,-0.11999999999999995,left,left,0.5059615809996103,correct,1
Block 2: Binocular_Crowded,25,-0.10999999999999996,left,left,0.6986682750002728,correct,1
Block 2: Binocular_Crowded,26,-0.10999999999999996,left,left,0.434977513999911,correct,1
Block 2: Binocular_Crowded,27,-0.09999999999999996,left,left,0.4045623940000951,correct,1
Block 2: Binocular_Crowded,28,-0.09999999999999996,left,left,0.2833285540000361,correct,1
Block 2: Binocular_Crowded,29,0.16999999999999998,right,right,0.44534630099951755,correct,1
Block 2: Binocular_Crowded,30,0.15999999999999998,right,right,0.3134619250004107,correct,1
Block 2: Binocular_Crowded,31,0.15999999999999998,right,right,0.4257032599998638,correct,1
Block 2: Binocular_Crowded,32,0.14999999999999997,right,right,0.34375345799981005,correct,1
Block 2: Binocular_Crowded,33,-0.08999999999999997,left,left,0.2933548590008286,correct,1
Block 2: Binocular_Crowded,34,-0.08999999999999997,left,left,0.3843500249995486,correct,1
Block 2: Binocular_Crowded,35,0.14999999999999997,right,right,0.3842168950004634,correct,1
Block 2: Binocular_Crowded,36,-0.07999999999999997,right,left,0.5866964739998366,false,0
Block 2: Binocular_Crowded,37,-0.08999999999999997,left,left,0.42504402800022945,correct,1
Block 2: Binocular_Crowded,38,-0.08999999999999997,left,left,0.2534277530003237,correct,1
Block 2: Binocular_Crowded,39,-0.07999999999999997,left,left,0.3740785710006094,correct,1
Block 2: Binocular_Crowded,40,-0.07999999999999997,left,left,0.43540712499998335,correct,1
Block 2: Binocular_Crowded,41,0.13999999999999996,right,right,0.3036979190001148,correct,1
Block 2: Binocular_Crowded,42,0.13999999999999996,right,right,0.19172696600071504,correct,1
Block 2: Binocular_Crowded,43,0.12999999999999995,right,right,0.32347341099921323,correct,1
Block 2: Binocular_Crowded,44,-0.06999999999999998,left,left,0.2020248899998478,correct,1
Block 2: Binocular_Crowded,45,-0.06999999999999998,left,left,0.19195394899998064,correct,1
Block 2: Binocular_Crowded,46,0.12999999999999995,left,right,0.3037534630002483,false,0
Block 2: Binocular_Crowded,47,0.13999999999999996,right,right,0.37454396300017834,correct,1
Block 2: Binocular_Crowded,48,-0.05999999999999998,left,left,0.31347258599998895,correct,1
Block 2: Binocular_Crowded,49,0.13999999999999996,right,right,0.3236770710000201,correct,1
Block 2: Binocular_Crowded,50,0.12999999999999995,right,right,0.3336205590003374,correct,1
Block 2: Binocular_Crowded,51,0.12999999999999995,right,right,0.31357061400012753,correct,1
Block 2: Binocular_Crowded,52,0.11999999999999995,left,right,0.26279897700078436,false,0
Block 2: Binocular_Crowded,53,-0.05999999999999998,left,left,0.3442366409999522,correct,1
Block 2: Binocular_Crowded,54,0.12999999999999995,right,right,0.4350841149998814,correct,1
Block 2: Binocular_Crowded,55,-0.049999999999999975,right,left,0.6780635140003142,false,0
Block 2: Binocular_Crowded,56,0.12999999999999995,right,right,0.3540613530003611,correct,1
Block 2: Binocular_Crowded,57,0.11999999999999995,right,right,0.34358172200063564,correct,1
Block 2: Binocular_Crowded,58,0.11999999999999995,right,right,0.34401140800036956,correct,1
Block 2: Binocular_Crowded,59,0.10999999999999996,right,right,0.48593792199972086,correct,1
Block 2: Binocular_Crowded,60,0.10999999999999996,right,right,0.40466396100055135,correct,1
Block 2: Binocular_Crowded,61,-0.05999999999999998,right,left,0.4862343080003484,false,0
Block 2: Binocular_Crowded,62,0.09999999999999996,right,right,0.2941611579999517,correct,1
Block 2: Binocular_Crowded,63,0.09999999999999996,right,right,0.35415283200018166,correct,1
Block 2: Binocular_Crowded,64,-0.06999999999999998,right,left,0.526360152000052,false,0
Block 2: Binocular_Crowded,65,-0.07999999999999997,right,left,0.4754756450001878,false,0
Block 2: Binocular_Crowded,66,0.08999999999999997,right,right,0.3845396679998885,correct,1
Block 2: Binocular_Crowded,67,0.08999999999999997,right,right,1.8631594640000912,correct,1
Block 2: Binocular_Crowded,68,0.07999999999999997,right,right,0.556828544000382,correct,1
Block 2: Binocular_Crowded,69,0.07999999999999997,right,right,0.43606291099968075,correct,1
Block 2: Binocular_Crowded,70,-0.08999999999999997,right,left,0.5066890159996547,false,0
Block 2: Binocular_Crowded,71,0.06999999999999998,right,right,0.4245251020001888,correct,1
Block 2: Binocular_Crowded,72,-0.09999999999999996,left,left,0.4145817159997023,correct,1
Block 2: Binocular_Crowded,73,0.06999999999999998,right,right,0.43526558199937426,correct,1
Block 2: Binocular_Crowded,74,-0.09999999999999996,left,left,0.445276229999763,correct,1
Block 2: Binocular_Crowded,75,0.05999999999999998,right,right,0.41477183699953457,correct,1
Block 2: Binocular_Crowded,76,0.05999999999999998,right,right,0.4249092190002557,correct,1
Block 2: Binocular_Crowded,77,-0.08999999999999997,left,left,0.6280795169996054,correct,1
Block 2: Binocular_Crowded,78,0.049999999999999975,right,right,0.3538815339998109,correct,1
Block 2: Binocular_Crowded,79,0.049999999999999975,right,right,0.37441217099967616,correct,1
Block 2: Binocular_Crowded,80,0.03999999999999997,right,right,0.4148462409993954,correct,1
Block 2: Binocular_Crowded,81,0.03999999999999997,right,right,0.39455011100017146,correct,1
Block 2: Binocular_Crowded,82,0.02999999999999997,right,right,0.3437218959998063,correct,1
Block 2: Binocular_Crowded,83,-0.08999999999999997,left,left,0.38434447799954796,correct,1
Block 2: Binocular_Crowded,84,-0.07999999999999997,left,left,0.4149897300003431,correct,1
Block 2: Binocular_Crowded,85,-0.07999999999999997,left,left,0.44492592599999625,correct,1
Block 2: Binocular_Crowded,86,0.02999999999999997,right,right,0.34377039999981207,correct,1
Block 2: Binocular_Crowded,87,0.01999999999999997,right,right,0.3035457910000332,correct,1
Block 2: Binocular_Crowded,88,0.01999999999999997,right,right,0.3948168879996956,correct,1
Block 2: Binocular_Crowded,89,0.009999999999999969,right,right,0.29276511400075833,correct,1
Block 2: Binocular_Crowded,90,0.009999999999999969,right,right,0.4248606450000807,correct,1
Block 2: Binocular_Crowded,91,-3.122502256758253e-17,right,right,0.34416109199992206,correct,1
Block 2: Binocular_Crowded,92,-0.06999999999999998,left,left,0.4252759060000244,correct,1
Block 2: Binocular_Crowded,93,-3.122502256758253e-17,right,right,0.3640387989998999,correct,1
Block 2: Binocular_Crowded,94,-0.06999999999999998,left,left,0.46519357600027433,correct,1
Block 2: Binocular_Crowded,95,-0.05999999999999998,left,left,0.6582192400001077,correct,1
Block 2: Binocular_Crowded,96,-0.010000000000000031,right,right,0.7086382899997261,correct,1
Block 2: Binocular_Crowded,97,-0.05999999999999998,left,left,0.33366177400057495,correct,1
Block 2: Binocular_Crowded,98,-0.010000000000000031,right,right,0.38480053399962344,correct,1
Block 2: Binocular_Crowded,99,-0.02000000000000003,right,right,0.4044002700002238,correct,1
Block 2: Binocular_Crowded,100,-0.02000000000000003,left,right,0.6172996679997595,false,0
Block 2: Binocular_Crowded,101,-0.049999999999999975,left,left,0.5970993659993837,correct,1
Block 2: Binocular_Crowded,102,-0.049999999999999975,left,left,0.4549006110000846,correct,1
Block 2: Binocular_Crowded,103,-0.03999999999999997,left,left,0.4146388620001744,correct,1
Block 2: Binocular_Crowded,104,-0.010000000000000031,left,right,0.526421517000017,false,0
Block 2: Binocular_Crowded,105,-0.03999999999999997,left,left,0.5067667940002138,correct,1
Block 2: Binocular_Crowded,106,-3.122502256758253e-17,left,right,0.4754708919999757,false,0
Block 2: Binocular_Crowded,107,0.009999999999999969,left,right,0.3843206209994605,false,0
Block 2: Binocular_Crowded,108,0.01999999999999997,right,right,0.42509681899991847,correct,1
Block 2: Binocular_Crowded,109,-0.02999999999999997,right,left,0.40443924399914977,false,0
Block 2: Binocular_Crowded,110,-0.03999999999999997,right,left,0.5464950069999759,false,0
Block 2: Binocular_Crowded,111,0.01999999999999997,right,right,0.8613384079999378,correct,1
Block 2: Binocular_Crowded,112,-0.049999999999999975,left,left,0.46558140100023593,correct,1
Block 2: Binocular_Crowded,113,-0.049999999999999975,left,left,0.4144050340000831,correct,1
Block 2: Binocular_Crowded,114,-0.03999999999999997,left,left,0.33396373400046286,correct,1
Block 2: Binocular_Crowded,115,0.009999999999999969,left,right,0.4145302659999288,false,0
Block 2: Binocular_Crowded,116,-0.03999999999999997,left,left,0.3236047000000326,correct,1
Block 2: Binocular_Crowded,117,-0.02999999999999997,left,left,0.3335895879999953,correct,1
Block 2: Binocular_Crowded,118,-0.02999999999999997,left,left,0.323712868000257,correct,1
Block 2: Binocular_Crowded,119,0.01999999999999997,left,right,0.3031909690007524,false,0
Block 3: Monocular_Standard,0,0.2,right,right,0.9312298619997819,correct,1
Block 3: Monocular_Standard,1,0.2,right,right,0.5563386769999852,correct,1
Block 3: Monocular_Standard,2,-0.2,left,left,1.6710438469999644,correct,1
Block 3: Monocular_Standard,3,-0.2,left,left,0.6885693570002331,correct,1
Block 3: Monocular_Standard,4,-0.19,left,left,0.6069231749997925,correct,1
Block 3: Monocular_Standard,5,0.19,right,right,1.1947509589999754,correct,1
Block 3: Monocular_Standard,6,0.19,right,right,0.6783040870004697,correct,1
Block 3: Monocular_Standard,7,-0.19,left,left,0.5766750310003772,correct,1
Block 3: Monocular_Standard,8,0.18,right,right,0.4047198429998389,correct,1
Block 3: Monocular_Standard,9,0.18,right,right,0.3540729119995376,correct,1
Block 3: Monocular_Standard,10,-0.18,left,left,0.3134793279996302,correct,1
Block 3: Monocular_Standard,11,0.16999999999999998,right,right,0.536682180999378,correct,1
Block 3: Monocular_Standard,12,-0.18,left,left,0.46536731300057,correct,1
Block 3: Monocular_Standard,13,0.16999999999999998,right,right,0.262935464000293,correct,1
Block 3: Monocular_Standard,14,0.15999999999999998,right,right,0.22275427600015973,correct,1
Block 3: Monocular_Standard,15,0.15999999999999998,right,right,0.5061745800003337,correct,1
Block 3: Monocular_Standard,16,0.14999999999999997,right,right,0.24263227099982032,correct,1
Block 3: Monocular_Standard,17,-0.16999999999999998,left,left,0.35409214999981486,correct,1
Block 3: Monocular_Standard,18,0.14999999999999997,right,right,0.4352664119996916,correct,1
Block 3: Monocular_Standard,19,0.13999999999999996,right,right,0.3336413330007417,correct,1
Block 3: Monocular_Standard,20,0.13999999999999996,right,right,0.20210228799987817,correct,1
Block 3: Monocular_Standard,21,-0.16999999999999998,right,left,0.20187041299959674,false,0
Block 3: Monocular_Standard,22,-0.18,right,left,0.131120670999735,false,0
Block 3: Monocular_Standard,23,-0.19,left,left,0.313764884000193,correct,1
Block 3: Monocular_Standard,24,0.12999999999999995,right,right,0.2730189189996963,correct,1
Block 3: Monocular_Standard,25,0.12999999999999995,right,right,0.32398521800041635,correct,1
Block 3: Monocular_Standard,26,0.11999999999999995,right,right,0.18214427900056762,correct,1
Block 3: Monocular_Standard,27,-0.19,left,left,0.21240544899956149,correct,1
Block 3: Monocular_Standard,28,-0.18,left,left,0.3439541369998551,correct,1
Block 3: Monocular_Standard,29,0.11999999999999995,right,right,0.32378764800068893,correct,1
Block 3: Monocular_Standard,30,-0.18,left,left,0.21210039200013853,correct,1
Block 3: Monocular_Standard,31,-0.16999999999999998,left,left,0.3948588439998275,correct,1
Block 3: Monocular_Standard,32,-0.16999999999999998,left,left,0.25281093399917154,correct,1
Block 3: Monocular_Standard,33,-0.15999999999999998,left,left,0.19194094599970413,correct,1
Block 3: Monocular_Standard,34,-0.15999999999999998,left,left,0.1716944390000208,correct,1
Block 3: Monocular_Standard,35,-0.14999999999999997,left,left,0.22245702899999742,correct,1
Block 3: Monocular_Standard,36,0.10999999999999996,right,right,0.39437103799991746,correct,1
Block 3: Monocular_Standard,37,0.10999999999999996,right,right,0.25267496000014944,correct,1
Block 3: Monocular_Standard,38,-0.14999999999999997,left,left,0.24254724999991595,correct,1
Block 3: Monocular_Standard,39,-0.13999999999999996,left,left,0.2328227859998151,correct,1
Block 3: Monocular_Standard,40,0.09999999999999996,right,right,0.3232855260002907,correct,1
Block 3: Monocular_Standard,41,-0.13999999999999996,left,left,0.1716820679994271,correct,1
Block 3: Monocular_Standard,42,0.09999999999999996,right,right,0.21277585000007093,correct,1
Block 3: Monocular_Standard,43,-0.12999999999999995,left,left,0.10173519599993597,correct,1
Block 3: Monocular_Standard,44,0.08999999999999997,right,right,0.16139891500006343,correct,1
Block 3: Monocular_Standard,45,0.08999999999999997,right,right,0.28300356500039925,correct,1
Block 3: Monocular_Standard,46,-0.12999999999999995,left,left,0.21219819999987521,correct,1
Block 3: Monocular_Standard,47,0.07999999999999997,right,right,0.2228590200002145,correct,1
Block 3: Monocular_Standard,48,-0.11999999999999995,left,left,0.10084702400035894,correct,1
Block 3: Monocular_Standard,49,0.07999999999999997,right,right,0.13121452699942893,correct,1
Block 3: Monocular_Standard,50,-0.11999999999999995,left,left,0.10077452000041376,correct,1
Block 3: Monocular_Standard,51,0.06999999999999998,right,right,0.10080088799986697,correct,1
Block 3: Monocular_Standard,52,-0.10999999999999996,left,left,0.2628861080002025,correct,1
Block 3: Monocular_Standard,53,-0.10999999999999996,right,left,0.2323660160000145,false,0
Block 3: Monocular_Standard,54,0.06999999999999998,right,right,0.3136719499998435,correct,1
Block 3: Monocular_Standard,55,0.05999999999999998,right,right,0.2431377999992037,correct,1
Block 3: Monocular_Standard,56,-0.11999999999999995,left,left,0.3036699790000057,correct,1
Block 3: Monocular_Standard,57,0.05999999999999998,right,right,0.27302511500056426,correct,1
Block 3: Monocular_Standard,58,-0.11999999999999995,left,left,0.2731399459999011,correct,1
Block 3: Monocular_Standard,59,0.049999999999999975,right,right,0.5054076769993117,correct,1
Block 3: Monocular_Standard,60,0.049999999999999975,left,right,0.12106979800046247,false,0
Block 3: Monocular_Standard,61,0.05999999999999998,right,right,0.27313989600042987,correct,1
Block 3: Monocular_Standard,62,-0.10999999999999996,left,left,0.2529836270005035,correct,1
Block 3: Monocular_Standard,63,0.05999999999999998,right,right,0.26296773499962,correct,1
Block 3: Monocular_Standard,64,0.049999999999999975,right,right,0.24270506699940597,correct,1
Block 3: Monocular_Standard,65,0.049999999999999975,right,right,0.2729887099994812,correct,1
Block 3: Monocular_Standard,66,-0.10999999999999996,left,left,0.1919964640001126,correct,1
Block 3: Monocular_Standard,67,0.03999999999999997,right,right,0.18165904299985414,correct,1
Block 3: Monocular_Standard,68,-0.09999999999999996,left,left,0.2728678690000379,correct,1
Block 3: Monocular_Standard,69,0.03999999999999997,right,right,0.1618844499998886,correct,1
Block 3: Monocular_Standard,70,-0.09999999999999996,left,left,0.22221547299977829,correct,1
Block 3: Monocular_Standard,71,-0.08999999999999997,left,left,0.32338923800034536,correct,1
Block 3: Monocular_Standard,72,-0.08999999999999997,right,left,0.15142526899944642,false,0
Block 3: Monocular_Standard,73,-0.09999999999999996,left,left,0.39439712799958215,correct,1
Block 3: Monocular_Standard,74,0.02999999999999997,right,right,0.3745872250001412,correct,1
Block 3: Monocular_Standard,75,0.02999999999999997,right,right,0.29324488299971563,correct,1
Block 3: Monocular_Standard,76,0.01999999999999997,right,right,0.29336466299992026,correct,1
Block 3: Monocular_Standard,77,-0.09999999999999996,left,left,0.29312139800003933,correct,1
Block 3: Monocular_Standard,78,-0.08999999999999997,left,left,0.3839986820003105,correct,1
Block 3: Monocular_Standard,79,0.01999999999999997,right,right,0.30450476900023205,correct,1
Block 3: Monocular_Standard,80,0.009999999999999969,right,right,0.475858251000318,correct,1
Block 3: Monocular_Standard,81,0.009999999999999969,right,right,0.34395878599934804,correct,1
Block 3: Monocular_Standard,82,-3.122502256758253e-17,right,right,0.2726550000006682,correct,1
Block 3: Monocular_Standard,83,-0.08999999999999997,left,left,0.35423120700033905,correct,1
Block 3: Monocular_Standard,84,-3.122502256758253e-17,right,right,0.24245158699977765,correct,1
Block 3: Monocular_Standard,85,-0.010000000000000031,right,right,0.4972126889997526,correct,1
Block 3: Monocular_Standard,86,-0.07999999999999997,left,left,0.26316464800038375,correct,1
Block 3: Monocular_Standard,87,-0.010000000000000031,right,right,0.4960813659999985,correct,1
Block 3: Monocular_Standard,88,-0.07999999999999997,left,left,0.40459600200028945,correct,1
Block 3: Monocular_Standard,89,-0.06999999999999998,left,left,0.4557664539997859,correct,1
Block 3: Monocular_Standard,90,-0.06999999999999998,left,left,0.34451288699983706,correct,1
Block 3: Monocular_Standard,91,-0.05999999999999998,left,left,0.3136882320004588,correct,1
Block 3: Monocular_Standard,92,-0.02000000000000003,right,right,0.3443481829999655,correct,1
Block 3: Monocular_Standard,93,-0.02000000000000003,right,right,0.2528872679995402,correct,1
Block 3: Monocular_Standard,94,-0.05999999999999998,left,left,0.3847525040000619,correct,1
Block 3: Monocular_Standard,95,-0.049999999999999975,left,left,0.425684755000475,correct,1
Block 3: Monocular_Standard,96,-0.049999999999999975,left,left,0.5162274809999872,correct,1
Block 3: Monocular_Standard,97,-0.030000000000000034,right,right,0.44481912900027964,correct,1
Block 3: Monocular_Standard,98,-0.03999999999999997,right,left,0.4357205869991958,false,0
Block 3: Monocular_Standard,99,-0.030000000000000034,right,right,0.38481076500011113,correct,1
Block 3: Monocular_Standard,100,-0.049999999999999975,left,left,0.435531396999977,correct,1
Block 3: Monocular_Standard,101,-0.040000000000000036,left,right,0.7186258179999641,false,0
Block 3: Monocular_Standard,102,-0.030000000000000034,right,right,0.28313965300003474,correct,1
Block 3: Monocular_Standard,103,-0.049999999999999975,left,left,0.41504745400015963,correct,1
Block 3: Monocular_Standard,104,-0.030000000000000034,right,right,0.3741483940002581,correct,1
Block 3: Monocular_Standard,105,-0.03999999999999997,left,left,0.38529595199997857,correct,1
Block 3: Monocular_Standard,106,-0.03999999999999997,left,left,0.30308747500021127,correct,1
Block 3: Monocular_Standard,107,-0.02999999999999997,left,left,0.36443969500032836,correct,1
Block 3: Monocular_Standard,108,-0.040000000000000036,left,right,0.44496649200027605,false,0
Block 3: Monocular_Standard,109,-0.02999999999999997,left,left,0.3134878430000754,correct,1
Block 3: Monocular_Standard,110,-0.01999999999999997,left,left,0.2525778890003494,correct,1
Block 3: Monocular_Standard,111,-0.030000000000000034,left,right,0.21225262299958558,false,0
Block 3: Monocular_Standard,112,-0.02000000000000003,left,right,0.323611188000541,false,0
Block 3: Monocular_Standard,113,-0.01999999999999997,right,left,0.34392273200046475,false,0
Block 3: Monocular_Standard,114,-0.02999999999999997,left,left,0.2930023170001732,correct,1
Block 3: Monocular_Standard,115,-0.02999999999999997,left,left,0.5562343270003112,correct,1
Block 3: Monocular_Standard,116,-0.01999999999999997,left,left,0.27308510300008493,correct,1
Block 3: Monocular_Standard,117,-0.010000000000000031,left,right,0.19192757299970253,false,0
Block 3: Monocular_Standard,118,-3.122502256758253e-17,right,right,0.1920420810001815,correct,1
Block 3: Monocular_Standard,119,-0.01999999999999997,right,left,0.24274698899989744,false,0
Block 4: Monocular_Crowded,0,-0.2,left,left,0.5466174949997367,correct,1
Block 4: Monocular_Crowded,1,-0.2,left,left,0.4145515499994872,correct,1
Block 4: Monocular_Crowded,2,0.2,right,right,0.8416895039999872,correct,1
Block 4: Monocular_Crowded,3,0.2,right,right,0.48593255000014324,correct,1
Block 4: Monocular_Crowded,4,-0.19,left,left,0.28311790299994755,correct,1
Block 4: Monocular_Crowded,5,-0.19,left,left,0.28320265599995764,correct,1
Block 4: Monocular_Crowded,6,0.19,right,right,0.25269849599953886,correct,1
Block 4: Monocular_Crowded,7,0.19,right,right,0.30303849000029004,correct,1
Block 4: Monocular_Crowded,8,0.18,right,right,0.32383627600029286,correct,1
Block 4: Monocular_Crowded,9,-0.18,right,left,0.1420063689993185,false,0
Block 4: Monocular_Crowded,10,0.18,right,right,0.14129746700018586,correct,1
Block 4: Monocular_Crowded,11,-0.19,left,left,0.2828559379995568,correct,1
Block 4: Monocular_Crowded,12,-0.19,left,left,0.2934589409996988,correct,1
Block 4: Monocular_Crowded,13,-0.18,left,left,0.2224597119993632,correct,1
Block 4: Monocular_Crowded,14,0.16999999999999998,right,right,0.2527388399994379,correct,1
Block 4: Monocular_Crowded,15,-0.18,left,left,0.28345775799971307,correct,1
Block 4: Monocular_Crowded,16,-0.16999999999999998,left,left,0.2425649800006795,correct,1
Block 4: Monocular_Crowded,17,0.16999999999999998,right,right,0.25306894599998486,correct,1
Block 4: Monocular_Crowded,18,-0.16999999999999998,right,left,0.48586338799941586,false,0
Block 4: Monocular_Crowded,19,-0.18,left,left,0.26291115599997283,correct,1
Block 4: Monocular_Crowded,20,-0.18,right,left,0.20215419400028622,false,0
Block 4: Monocular_Crowded,21,0.15999999999999998,right,right,0.2730826699998943,correct,1
Block 4: Monocular_Crowded,22,0.15999999999999998,right,right,0.23273952799991093,correct,1
Block 4: Monocular_Crowded,23,0.14999999999999997,right,right,0.3538726469996618,correct,1
Block 4: Monocular_Crowded,24,0.14999999999999997,right,right,0.263055527000688,correct,1
Block 4: Monocular_Crowded,25,0.13999999999999996,right,right,0.23254060999988724,correct,1
Block 4: Monocular_Crowded,26,0.13999999999999996,right,right,0.20208652299970709,correct,1
Block 4: Monocular_Crowded,27,0.12999999999999995,right,right,0.2325838319993636,correct,1
Block 4: Monocular_Crowded,28,0.12999999999999995,right,right,0.19185482800003228,correct,1
Block 4: Monocular_Crowded,29,-0.19,left,left,0.2729046929998731,correct,1
Block 4: Monocular_Crowded,30,0.11999999999999995,right,right,0.2323851619994457,correct,1
Block 4: Monocular_Crowded,31,0.11999999999999995,right,right,0.2831908520001889,correct,1
Block 4: Monocular_Crowded,32,-0.19,left,left,0.373910356000124,correct,1
Block 4: Monocular_Crowded,33,0.10999999999999996,right,right,0.30363771700012876,correct,1
Block 4: Monocular_Crowded,34,0.10999999999999996,right,right,0.2932516479995684,correct,1
Block 4: Monocular_Crowded,35,-0.18,left,left,0.2935068879996834,correct,1
Block 4: Monocular_Crowded,36,-0.18,left,left,0.30344084199987265,correct,1
Block 4: Monocular_Crowded,37,-0.16999999999999998,left,left,0.3841908969998258,correct,1
Block 4: Monocular_Crowded,38,0.09999999999999996,right,right,0.36443651100034913,correct,1
Block 4: Monocular_Crowded,39,0.09999999999999996,left,right,0.2223977459998423,false,0
Block 4: Monocular_Crowded,40,0.10999999999999996,left,right,0.2630434949996925,false,0
Block 4: Monocular_Crowded,41,0.11999999999999995,right,right,0.16178705000038462,correct,1
Block 4: Monocular_Crowded,42,0.11999999999999995,right,right,0.22223377199952665,correct,1
Block 4: Monocular_Crowded,43,0.10999999999999996,right,right,0.19233842199992068,correct,1
Block 4: Monocular_Crowded,44,0.10999999999999996,right,right,0.17194526699950075,correct,1
Block 4: Monocular_Crowded,45,0.09999999999999996,right,right,0.21227414900022268,correct,1
Block 4: Monocular_Crowded,46,-0.16999999999999998,left,left,0.27283110999997007,correct,1
Block 4: Monocular_Crowded,47,-0.15999999999999998,left,left,0.4045834210000976,correct,1
Block 4: Monocular_Crowded,48,0.09999999999999996,left,right,0.2527535950002857,false,0
Block 4: Monocular_Crowded,49,-0.15999999999999998,left,left,0.3436922680002681,correct,1
Block 4: Monocular_Crowded,50,-0.14999999999999997,left,left,0.2527237940003033,correct,1
Block 4: Monocular_Crowded,51,-0.14999999999999997,left,left,0.6481532829993739,correct,1
Block 4: Monocular_Crowded,52,0.10999999999999996,right,right,0.3245235220001632,correct,1
Block 4: Monocular_Crowded,53,0.10999999999999996,right,right,0.3438758379998035,correct,1
Block 4: Monocular_Crowded,54,-0.13999999999999996,left,left,0.25270017799994093,correct,1
Block 4: Monocular_Crowded,55,-0.13999999999999996,left,left,0.31334764099938184,correct,1
Block 4: Monocular_Crowded,56,0.09999999999999996,right,right,0.3144225749992984,correct,1
Block 4: Monocular_Crowded,57,0.09999999999999996,right,right,0.2931016259999524,correct,1
Block 4: Monocular_Crowded,58,-0.12999999999999995,left,left,0.32357911599956424,correct,1
Block 4: Monocular_Crowded,59,-0.12999999999999995,left,left,0.314102367000487,correct,1
Block 4: Monocular_Crowded,60,0.08999999999999997,right,right,0.3135778810001284,correct,1
Block 4: Monocular_Crowded,61,0.08999999999999997,right,right,0.4049234170006457,correct,1
Block 4: Monocular_Crowded,62,0.07999999999999997,right,right,0.4149743150001086,correct,1
Block 4: Monocular_Crowded,63,0.07999999999999997,right,right,0.2326841450003485,correct,1
Block 4: Monocular_Crowded,64,0.06999999999999998,right,right,0.272990209999989,correct,1
Block 4: Monocular_Crowded,65,-0.11999999999999995,left,left,0.394652094999401,correct,1
Block 4: Monocular_Crowded,66,-0.11999999999999995,left,left,0.49557215200002247,correct,1
Block 4: Monocular_Crowded,67,-0.10999999999999996,left,left,0.4146677949993318,correct,1
Block 4: Monocular_Crowded,68,-0.10999999999999996,left,left,0.3845734120004636,correct,1
Block 4: Monocular_Crowded,69,-0.09999999999999996,left,left,0.3144475290000628,correct,1
Block 4: Monocular_Crowded,70,-0.09999999999999996,left,left,0.24221279799985496,correct,1
Block 4: Monocular_Crowded,71,-0.08999999999999997,left,left,0.31367959100043663,correct,1
Block 4: Monocular_Crowded,72,-0.08999999999999997,left,left,0.2727270010000211,correct,1
Block 4: Monocular_Crowded,73,0.06999999999999998,right,right,0.35440716100038117,correct,1
Block 4: Monocular_Crowded,74,0.05999999999999998,right,right,0.3131128400000307,correct,1
Block 4: Monocular_Crowded,75,0.05999999999999998,right,right,0.3945346540003811,correct,1
Block 4: Monocular_Crowded,76,0.049999999999999975,right,right,0.3337886930003151,correct,1
Block 4: Monocular_Crowded,77,-0.07999999999999997,right,left,0.3945263320001686,false,0
Block 4: Monocular_Crowded,78,-0.08999999999999997,left,left,0.546937066999817,correct,1
Block 4: Monocular_Crowded,79,-0.08999999999999997,left,left,0.3335651950001193,correct,1
Block 4: Monocular_Crowded,80,-0.07999999999999997,left,left,0.43494334499973775,correct,1
Block 4: Monocular_Crowded,81,-0.07999999999999997,left,left,0.3441426509998564,correct,1
Block 4: Monocular_Crowded,82,-0.06999999999999998,left,left,0.6478376999993998,correct,1
Block 4: Monocular_Crowded,83,-0.06999999999999998,left,left,0.526991447999535,correct,1
Block 4: Monocular_Crowded,84,0.049999999999999975,right,right,0.5369186529997023,correct,1
Block 4: Monocular_Crowded,85,0.03999999999999997,right,right,0.3641532490000827,correct,1
Block 4: Monocular_Crowded,86,-0.05999999999999998,right,left,0.46535550899989175,false,0
Block 4: Monocular_Crowded,87,0.03999999999999997,right,right,0.2532951770008367,correct,1
Block 4: Monocular_Crowded,88,0.02999999999999997,right,right,0.2627079069998217,correct,1
Block 4: Monocular_Crowded,89,0.02999999999999997,right,right,0.3035590859999502,correct,1
Block 4: Monocular_Crowded,90,0.01999999999999997,right,right,0.31337706099930074,correct,1
Block 4: Monocular_Crowded,91,-0.06999999999999998,right,left,0.2124530560004132,false,0
Block 4: Monocular_Crowded,92,0.01999999999999997,left,right,0.4450030259995401,false,0
Block 4: Monocular_Crowded,93,0.02999999999999997,right,right,0.15151311200042983,correct,1
Block 4: Monocular_Crowded,94,0.02999999999999997,right,right,0.21194770300007804,correct,1
Block 4: Monocular_Crowded,95,-0.07999999999999997,left,left,0.3439422330002344,correct,1
Block 4: Monocular_Crowded,96,0.01999999999999997,right,right,0.27311898399966594,correct,1
Block 4: Monocular_Crowded,97,-0.07999999999999997,left,left,0.2731504289995428,correct,1
Block 4: Monocular_Crowded,98,-0.06999999999999998,right,left,0.34382947699941724,false,0
Block 4: Monocular_Crowded,99,0.01999999999999997,right,right,0.3032416240002931,correct,1
Block 4: Monocular_Crowded,100,0.009999999999999969,left,right,0.43517716199949064,false,0
Block 4: Monocular_Crowded,101,-0.07999999999999997,right,left,0.34404109900060575,false,0
Block 4: Monocular_Crowded,102,0.01999999999999997,right,right,0.6374601950001306,correct,1
Block 4: Monocular_Crowded,103,-0.08999999999999997,left,left,0.3438807980001002,correct,1
Block 4: Monocular_Crowded,104,-0.08999999999999997,left,left,0.35417046600014146,correct,1
Block 4: Monocular_Crowded,105,0.01999999999999997,left,right,0.40475860300011846,false,0
Block 4: Monocular_Crowded,106,-0.07999999999999997,left,left,0.21329677199992148,correct,1
Block 4: Monocular_Crowded,107,0.02999999999999997,right,right,0.3843750870000804,correct,1
Block 4: Monocular_Crowded,108,-0.07999999999999997,left,left,0.31384245099980035,correct,1
Block 4: Monocular_Crowded,109,-0.06999999999999998,left,left,0.2829819309999948,correct,1
Block 4: Monocular_Crowded,110,-0.06999999999999998,left,left,0.34374946000025375,correct,1
Block 4: Monocular_Crowded,111,-0.05999999999999998,left,left,0.2535326509996594,correct,1
Block 4: Monocular_Crowded,112,-0.05999999999999998,left,left,0.28347205499994743,correct,1
Block 4: Monocular_Crowded,113,0.02999999999999997,left,right,0.37394171799951437,false,0
Block 4: Monocular_Crowded,114,-0.049999999999999975,left,left,0.5164433669997379,correct,1
Block 4: Monocular_Crowded,115,0.03999999999999997,right,right,0.48580867599957855,correct,1
Block 4: Monocular_Crowded,116,-0.049999999999999975,left,left,0.23252215000047727,correct,1
Block 4: Monocular_Crowded,117,-0.03999999999999997,left,left,0.3945639690000462,correct,1
Block 4: Monocular_Crowded,118,-0.03999999999999997,left,left,0.2628430919994571,correct,1
Block 4: Monocular_Crowded,119,0.03999999999999997,left,right,0.27300003900018055,false,0
