label,trials,offset,keys,direction,response_time,accuracy,response_numeric
Block 1: Binocular_Crowded,0,-0.206,left,left,0.9097999369996614,correct,1
Block 1: Binocular_Crowded,1,0.09,right,right,1.001799055000447,correct,1
Block 1: Binocular_Crowded,2,-0.03,left,left,3.269943473999774,correct,1
Block 1: Binocular_Crowded,3,-0.19,left,left,2.6942973189998156,correct,1
Block 1: Binocular_Crowded,4,-0.05,left,left,3.503368335000232,correct,1
Block 1: Binocular_Crowded,5,-0.04,left,left,0.6579793130003964,correct,1
Block 1: Binocular_Crowded,6,0.02,left,right,1.1650881879995723,false,0
Block 1: Binocular_Crowded,7,-0.21,left,left,0.30350909199933085,correct,1
Block 1: Binocular_Crowded,8,-0.07,left,left,0.3839344770003663,correct,1
Block 1: Binocular_Crowded,9,-0.03,left,left,0.495842177000668,correct,1
Block 1: Binocular_Crowded,10,-0.13,left,left,0.4959257789996627,correct,1
Block 1: Binocular_Crowded,11,0.14,left,right,0.7399066269999821,false,0
Block 1: Binocular_Crowded,12,0.043,left,right,0.43599154200001067,false,0
Block 1: Binocular_Crowded,13,0.15,right,right,0.2932188149998183,correct,1
Block 1: Binocular_Crowded,14,0.1,right,right,1.5797752219996255,correct,1
Block 1: Binocular_Crowded,15,0.06,right,right,0.3742960640001911,correct,1
Block 1: Binocular_Crowded,16,0.23,right,right,1.0128483770004095,correct,1
Block 1: Binocular_Crowded,17,0.035,right,right,0.44627959199988254,correct,1
Block 1: Binocular_Crowded,18,0.19,right,right,0.29393182700005127,correct,1
Block 1: Binocular_Crowded,19,0.1,right,right,0.8910713350005608,correct,1
Block 1: Binocular_Crowded,20,0.11,right,right,0.4659050270001899,correct,1
Block 1: Binocular_Crowded,21,-0.01,right,left,0.33356241500041506,false,0
Block 1: Binocular_Crowded,22,-0.2,left,left,0.2832698949996484,correct,1
Block 1: Binocular_Crowded,23,-0.17,left,left,0.28329412499988393,correct,1
Block 1: Binocular_Crowded,24,-0.035,left,left,0.9409790150002664,correct,1
Block 1: Binocular_Crowded,25,-0.01,right,left,0.4652203060004467,false,0
Block 1: Binocular_Crowded,26,-0.11,left,left,0.35426509300032194,correct,1
Block 1: Binocular_Crowded,27,-0.1,right,left,1.4383480870001222,false,0
Block 1: Binocular_Crowded,28,-0.16,left,left,1.0323805500001981,correct,1
Block 1: Binocular_Crowded,29,0.21,right,right,0.4348232989996177,correct,1
Block 1: Binocular_Crowded,30,-0.02,left,left,1.2049526749997312,correct,1
Block 1: Binocular_Crowded,31,-0.18,left,left,0.657874076000553,correct,1
Block 1: Binocular_Crowded,32,0.04,left,right,0.6782769649998954,false,0
Block 1: Binocular_Crowded,33,0.03,left,right,0.4655972250002378,false,0
Block 1: Binocular_Crowded,34,-0.08,left,left,0.3941787200001272,correct,1
Block 1: Binocular_Crowded,35,-0.06,left,left,0.4455805799998416,correct,1
Block 1: Binocular_Crowded,36,-0.131,left,left,0.9514368589998412,correct,1
Block 1: Binocular_Crowded,37,-0.19,left,left,0.7280034429995794,correct,1
Block 1: Binocular_Crowded,38,-0.04,left,left,1.1544555580003362,correct,1
Block 1: Binocular_Crowded,39,0.07,left,right,0.424406701999942,false,0
Block 1: Binocular_Crowded,40,-0.043,left,left,0.30331827299960423,correct,1
Block 1: Binocular_Crowded,41,0.17,right,right,0.37408766799944715,correct,1
Block 1: Binocular_Crowded,42,-0.043,left,left,0.8304573430004893,correct,1
Block 1: Binocular_Crowded,43,-0.2,left,left,0.32397296799990727,correct,1
Block 1: Binocular_Crowded,44,-0.07,left,left,0.5257653629996639,correct,1
Block 1: Binocular_Crowded,45,-0.16,left,left,0.33357161300045846,correct,1
Block 1: Binocular_Crowded,46,0.01,left,right,0.6167491300002439,false,0
Block 1: Binocular_Crowded,47,0.16,left,right,1.489475362000121,false,0
Block 1: Binocular_Crowded,48,0.05,left,right,0.46555031499974575,false,0
Block 1: Binocular_Crowded,49,-0.09,left,left,0.29375430599975516,correct,1
Block 1: Binocular_Crowded,50,-0.21,left,left,0.3643789369998558,correct,1
Block 1: Binocular_Crowded,51,0.21,right,right,0.404421573000036,correct,1
Block 1: Binocular_Crowded,52,0.2,right,right,0.5466824620007174,correct,1
Block 1: Binocular_Crowded,53,-0.02,right,left,1.195119273000273,false,0
Block 1: Binocular_Crowded,54,0.043,right,right,0.24253185100042174,correct,1
Block 1: Binocular_Crowded,55,0.23,right,right,0.31341835599960177,correct,1
Block 1: Binocular_Crowded,56,-0.08,left,left,0.5770384229999763,correct,1
Block 1: Binocular_Crowded,57,-0.14,left,left,0.37501199600046675,correct,1
Block 1: Binocular_Crowded,58,0.18,right,right,0.30330551999941235,correct,1
Block 1: Binocular_Crowded,59,0.02,right,right,2.2592499600004885,correct,1
Block 1: Binocular_Crowded,60,-0.12,left,left,0.4451778099992225,correct,1
Block 1: Binocular_Crowded,61,0.07,right,right,0.5362618039998779,correct,1
Block 1: Binocular_Crowded,62,-0.09,left,left,0.6776563849998638,correct,1
Block 1: Binocular_Crowded,63,-0.12,left,left,2.014897349000421,correct,1
Block 1: Binocular_Crowded,64,0.03,left,right,0.5260787239994897,false,0
Block 1: Binocular_Crowded,65,-0.06,left,left,0.36423547199956374,correct,1
Block 1: Binocular_Crowded,66,0.01,left,right,0.3842713180001738,false,0
Block 1: Binocular_Crowded,67,0.206,right,right,0.26277079000010417,correct,1
Block 1: Binocular_Crowded,68,0.11,right,right,0.3034807100002581,correct,1
Block 1: Binocular_Crowded,69,0.08,right,right,0.4050674139998591,correct,1
Block 1: Binocular_Crowded,70,0.14,right,right,0.31367127199973766,correct,1
Block 1: Binocular_Crowded,71,0.13,right,right,0.27304296600050293,correct,1
Block 1: Binocular_Crowded,72,0.035,right,right,0.32327899600022647,correct,1
Block 1: Binocular_Crowded,73,-0.1,left,left,0.3235736120004731,correct,1
Block 1: Binocular_Crowded,74,0.131,right,right,0.3946476860000985,correct,1
Block 1: Binocular_Crowded,75,0.131,right,right,0.3846103240002776,correct,1
Block 1: Binocular_Crowded,76,-0.14,left,left,0.47534000700034085,correct,1
Block 1: Binocular_Crowded,77,-0.13,left,left,0.3754880859996774,correct,1
Block 1: Binocular_Crowded,78,0.15,right,right,0.23253838399978122,correct,1
Block 1: Binocular_Crowded,79,0.19,right,right,0.44466176199966867,correct,1
Block 1: Binocular_Crowded,80,-0.05,left,left,0.34399762300017755,correct,1
Block 1: Binocular_Crowded,81,-0.22,left,left,0.31311015499977657,correct,1
Block 1: Binocular_Crowded,82,-0.22,left,left,0.4656806789998882,correct,1
Block 1: Binocular_Crowded,83,0.22,right,right,0.3442822590004653,correct,1
Block 1: Binocular_Crowded,84,0.22,right,right,0.38520673399943917,correct,1
Block 1: Binocular_Crowded,85,-0.035,left,left,0.6984706180001012,correct,1
Block 1: Binocular_Crowded,86,-0.18,left,left,0.3143729200000962,correct,1
Block 1: Binocular_Crowded,87,0.12,right,right,0.36439426400011143,correct,1
Block 1: Binocular_Crowded,88,0.05,left,right,0.7791097859999354,false,0
Block 1: Binocular_Crowded,89,0.206,right,right,0.2018796279999151,correct,1
Block 1: Binocular_Crowded,90,0.04,right,right,0.4250517660002515,correct,1
Block 1: Binocular_Crowded,91,-0.17,left,left,0.6373537039999064,correct,1
Block 1: Binocular_Crowded,92,0.12,right,right,0.3439318450000428,correct,1
Block 1: Binocular_Crowded,93,-0.23,left,left,0.3334358649999558,correct,1
Block 1: Binocular_Crowded,94,-0.15,left,left,0.37437329800013686,correct,1
Block 1: Binocular_Crowded,95,-0.23,left,left,0.36381409099976736,correct,1
Block 1: Binocular_Crowded,96,0.08,right,right,0.5069168810005067,correct,1
Block 1: Binocular_Crowded,97,0.2,right,right,0.3036503549992631,correct,1
Block 1: Binocular_Crowded,98,0.18,right,right,0.34490685099990515,correct,1
Block 1: Binocular_Crowded,99,0.16,right,right,0.4147170140004164,correct,1
Block 1: Binocular_Crowded,100,-0.15,left,left,0.5365613099993425,correct,1
Block 1: Binocular_Crowded,101,-0.206,left,left,0.8501551089993882,correct,1
Block 1: Binocular_Crowded,102,0.13,left,right,0.79909353200037,false,0
Block 1: Binocular_Crowded,103,0.06,left,right,0.708975434000422,false,0
Block 1: Binocular_Crowded,104,0.17,right,right,0.2839994360001583,correct,1
Block 1: Binocular_Crowded,105,-0.11,left,left,1.4276932780003335,correct,1
Block 1: Binocular_Crowded,106,-0.131,left,left,0.7496942419993502,correct,1
Block 1: Binocular_Crowded,107,0.09,right,right,0.4045522219994382,correct,1
Block 2: Binocular_Standard,0,-0.11,left,left,1.4474625639995793,correct,1
Block 2: Binocular_Standard,1,0.08,right,right,0.43505623700002616,correct,1
Block 2: Binocular_Standard,2,0.13,right,right,0.41518628299945703,correct,1
Block 2: Binocular_Standard,3,0.08,left,right,0.5059108240002388,false,0
Block 2: Binocular_Standard,4,0.043,left,right,0.28305480600010924,false,0
Block 2: Binocular_Standard,5,0.206,right,right,0.20216744899971673,correct,1
Block 2: Binocular_Standard,6,0.17,right,right,0.4247043390005274,correct,1
Block 2: Binocular_Standard,7,-0.035,left,left,0.4754364580003312,correct,1
Block 2: Binocular_Standard,8,0.13,right,right,0.4143098650001775,correct,1
Block 2: Binocular_Standard,9,-0.12,left,left,0.36394761400060816,correct,1
Block 2: Binocular_Standard,10,0.16,right,right,0.26284182600011263,correct,1
Block 2: Binocular_Standard,11,0.21,right,right,0.22220840599948133,correct,1
Block 2: Binocular_Standard,12,0.043,right,right,0.3135450279996803,correct,1
Block 2: Binocular_Standard,13,0.03,right,right,0.38391927999964537,correct,1
Block 2: Binocular_Standard,14,0.1,right,right,0.262866034999206,correct,1
Block 2: Binocular_Standard,15,-0.11,left,left,0.34398465499998565,correct,1
Block 2: Binocular_Standard,16,0.01,right,right,0.324134877000688,correct,1
Block 2: Binocular_Standard,17,-0.08,left,left,0.4557859839997036,correct,1
Block 2: Binocular_Standard,18,0.19,right,right,0.25313470999935817,correct,1
Block 2: Binocular_Standard,19,0.06,right,right,0.2734359320002113,correct,1
Block 2: Binocular_Standard,20,0.15,right,right,0.2735633100000996,correct,1
Block 2: Binocular_Standard,21,0.23,right,right,0.23270462799973757,correct,1
Block 2: Binocular_Standard,22,0.15,right,right,0.2629569620003167,correct,1
Block 2: Binocular_Standard,23,-0.07,right,left,0.21194948100037436,false,0
Block 2: Binocular_Standard,24,0.14,right,right,0.07039356699988275,correct,1
Block 2: Binocular_Standard,25,-0.05,left,left,0.34428329300044425,correct,1
Block 2: Binocular_Standard,26,-0.14,left,left,0.2932929399994464,correct,1
Block 2: Binocular_Standard,27,-0.14,left,left,0.3237603110001146,correct,1
Block 2: Binocular_Standard,28,-0.04,right,left,0.4552384559992788,false,0
Block 2: Binocular_Standard,29,-0.13,left,left,0.2121464259998902,correct,1
Block 2: Binocular_Standard,30,0.14,right,right,0.3642607470001167,correct,1
Block 2: Binocular_Standard,31,0.206,right,right,0.2731900589997167,correct,1
Block 2: Binocular_Standard,32,0.035,right,right,0.3845823419997032,correct,1
Block 2: Binocular_Standard,33,0.05,right,right,0.6984325570001602,correct,1
Block 2: Binocular_Standard,34,-0.01,left,left,0.4449826670006587,correct,1
Block 2: Binocular_Standard,35,0.18,right,right,0.23269212699960917,correct,1
Block 2: Binocular_Standard,36,-0.08,left,left,0.3237933280006473,correct,1
Block 2: Binocular_Standard,37,-0.18,left,left,0.2525070550000237,correct,1
Block 2: Binocular_Standard,38,-0.01,left,left,0.5978494479995788,correct,1
Block 2: Binocular_Standard,39,-0.18,left,left,0.28292668300036894,correct,1
Block 2: Binocular_Standard,40,0.22,right,right,0.374484166000002,correct,1
Block 2: Binocular_Standard,41,0.01,right,right,1.5281076179999218,correct,1
Block 2: Binocular_Standard,42,0.2,right,right,0.3236986479996631,correct,1
Block 2: Binocular_Standard,43,0.07,right,right,0.38480039600017335,correct,1
Block 2: Binocular_Standard,44,-0.16,left,left,0.2525745940001798,correct,1
Block 2: Binocular_Standard,45,-0.17,left,left,0.28321187300025485,correct,1
Block 2: Binocular_Standard,46,-0.23,left,left,0.2325072720004755,correct,1
Block 2: Binocular_Standard,47,0.12,right,right,0.3132003890004853,correct,1
Block 2: Binocular_Standard,48,-0.03,right,left,0.6685893439998836,false,0
Block 2: Binocular_Standard,49,-0.21,left,left,0.2626925940003275,correct,1
Block 2: Binocular_Standard,50,0.03,right,right,0.23275300699970103,correct,1
Block 2: Binocular_Standard,51,0.23,right,right,0.32351517700044496,correct,1
Block 2: Binocular_Standard,52,0.02,left,right,1.0734132699999464,false,0
Block 2: Binocular_Standard,53,-0.15,left,left,0.2830590089997713,correct,1
Block 2: Binocular_Standard,54,0.09,right,right,0.3436170940003649,correct,1
Block 2: Binocular_Standard,55,0.1,right,right,0.3640600369999447,correct,1
Block 2: Binocular_Standard,56,-0.15,left,left,0.2833117919999495,correct,1
Block 2: Binocular_Standard,57,-0.07,left,left,0.40497553600016545,correct,1
Block 2: Binocular_Standard,58,-0.19,left,left,0.3536735249999765,correct,1
Block 2: Binocular_Standard,59,0.06,right,right,0.414943470000253,correct,1
Block 2: Binocular_Standard,60,0.04,right,right,0.5265189100000498,correct,1
Block 2: Binocular_Standard,61,-0.13,left,left,0.2829740140005015,correct,1
Block 2: Binocular_Standard,62,0.17,right,right,0.30333987700032594,correct,1
Block 2: Binocular_Standard,63,0.12,right,right,0.4249499190000279,correct,1
Block 2: Binocular_Standard,64,-0.1,left,left,0.46548518800045713,correct,1
Block 2: Binocular_Standard,65,-0.131,left,left,0.3548845279992747,correct,1
Block 2: Binocular_Standard,66,-0.22,left,left,0.32361606100039353,correct,1
Block 2: Binocular_Standard,67,-0.21,left,left,0.3847990549993483,correct,1
Block 2: Binocular_Standard,68,0.19,right,right,0.5772123940005258,correct,1
Block 2: Binocular_Standard,69,0.035,right,right,0.42470676400080265,correct,1
Block 2: Binocular_Standard,70,0.16,right,right,0.3135592070002531,correct,1
Block 2: Binocular_Standard,71,0.11,right,right,0.3540418160000627,correct,1
Block 2: Binocular_Standard,72,-0.206,left,left,0.3134829759992499,correct,1
Block 2: Binocular_Standard,73,-0.22,left,left,0.35405440900012763,correct,1
Block 2: Binocular_Standard,74,-0.02,left,left,0.7891772089997175,correct,1
Block 2: Binocular_Standard,75,-0.09,left,left,0.363951256999826,correct,1
Block 2: Binocular_Standard,76,-0.06,left,left,0.4955741940002554,correct,1
Block 2: Binocular_Standard,77,-0.23,left,left,0.31366432499999064,correct,1
Block 2: Binocular_Standard,78,-0.043,left,left,0.8603216269993936,correct,1
Block 2: Binocular_Standard,79,-0.131,left,left,0.3545688619997236,correct,1
Block 2: Binocular_Standard,80,0.131,right,right,0.3643031500005236,correct,1
Block 2: Binocular_Standard,81,-0.19,left,left,0.3137933259995407,correct,1
Block 2: Binocular_Standard,82,0.131,right,right,0.445603055999527,correct,1
Block 2: Binocular_Standard,83,-0.16,left,left,0.3540607050008475,correct,1
Block 2: Binocular_Standard,84,-0.09,left,left,0.434916123000221,correct,1
Block 2: Binocular_Standard,85,-0.06,left,left,0.6982096060000913,correct,1
Block 2: Binocular_Standard,86,0.11,right,right,0.4258318819993292,correct,1
Block 2: Binocular_Standard,87,0.18,right,right,0.43536717599999974,correct,1
Block 2: Binocular_Standard,88,-0.17,left,left,0.31367551400035154,correct,1
Block 2: Binocular_Standard,89,-0.04,left,left,0.40453047299979517,correct,1
Block 2: Binocular_Standard,90,0.21,right,right,0.3536917209994499,correct,1
Block 2: Binocular_Standard,91,0.07,right,right,0.39450742400003946,correct,1
Block 2: Binocular_Standard,92,-0.2,left,left,0.3337017220001144,correct,1
Block 2: Binocular_Standard,93,0.02,right,right,0.5471002109998153,correct,1
Block 2: Binocular_Standard,94,-0.02,right,left,0.415056523000203,false,0
Block 2: Binocular_Standard,95,0.05,right,right,0.3236378159999731,correct,1
Block 2: Binocular_Standard,96,0.2,right,right,0.26302674900034617,correct,1
Block 2: Binocular_Standard,97,-0.035,right,left,0.9215474920001725,false,0
Block 2: Binocular_Standard,98,0.09,right,right,0.2932336399999258,correct,1
Block 2: Binocular_Standard,99,-0.03,right,left,0.384850219999862,false,0
Block 2: Binocular_Standard,100,-0.206,left,left,0.2528867099999843,correct,1
Block 2: Binocular_Standard,101,-0.043,left,left,0.496512009000071,correct,1
Block 2: Binocular_Standard,102,-0.05,left,left,0.4751996129998588,correct,1
Block 2: Binocular_Standard,103,-0.12,left,left,0.4150409209996724,correct,1
Block 2: Binocular_Standard,104,0.22,right,right,0.40449757100032,correct,1
Block 2: Binocular_Standard,105,0.04,right,right,0.4053200600001219,correct,1
Block 2: Binocular_Standard,106,-0.1,left,left,0.33340578299976187,correct,1
Block 2: Binocular_Standard,107,-0.2,left,left,0.2932651050005006,correct,1
Block 3: Monocular_Crowded,0,-0.04,left,left,0.8711015770004451,correct,1
Block 3: Monocular_Crowded,1,0.15,right,right,0.4556272049994732,correct,1
Block 3: Monocular_Crowded,2,0.04,right,right,1.7835432269994271,correct,1
Block 3: Monocular_Crowded,3,-0.05,right,left,1.0330176689994914,false,0
Block 3: Monocular_Crowded,4,0.14,right,right,0.3243924819998938,correct,1
Block 3: Monocular_Crowded,5,-0.13,left,left,0.394340657999237,correct,1
Block 3: Monocular_Crowded,6,0.1,right,right,0.3754687480004577,correct,1
Block 3: Monocular_Crowded,7,-0.07,left,left,0.34441323499959253,correct,1
Block 3: Monocular_Crowded,8,-0.11,left,left,0.32346900700031256,correct,1
Block 3: Monocular_Crowded,9,-0.12,left,left,0.5569679469999755,correct,1
Block 3: Monocular_Crowded,10,0.01,left,right,0.44503127099960693,false,0
Block 3: Monocular_Crowded,11,-0.19,left,left,0.22234796700013248,correct,1
Block 3: Monocular_Crowded,12,0.06,right,right,0.47591794100026164,correct,1
Block 3: Monocular_Crowded,13,-0.22,left,left,0.3850494970001819,correct,1
Block 3: Monocular_Crowded,14,-0.17,left,left,0.7184547199994995,correct,1
Block 3: Monocular_Crowded,15,0.03,right,right,0.4961263830000462,correct,1
Block 3: Monocular_Crowded,16,-0.05,left,left,0.9108962059999612,correct,1
Block 3: Monocular_Crowded,17,-0.03,left,left,0.4350508159996025,correct,1
Block 3: Monocular_Crowded,18,-0.131,left,left,0.3541118590001133,correct,1
Block 3: Monocular_Crowded,19,0.02,left,right,0.3742222020000554,false,0
Block 3: Monocular_Crowded,20,0.12,right,right,0.40461990000039805,correct,1
Block 3: Monocular_Crowded,21,0.09,right,right,0.4555867210001452,correct,1
Block 3: Monocular_Crowded,22,0.23,right,right,0.314278070999535,correct,1
Block 3: Monocular_Crowded,23,-0.21,left,left,0.3443373239997527,correct,1
Block 3: Monocular_Crowded,24,-0.16,left,left,0.24320577999969828,correct,1
Block 3: Monocular_Crowded,25,-0.06,left,left,0.2828371289997449,correct,1
Block 3: Monocular_Crowded,26,-0.07,right,left,0.25250657699962176,false,0
Block 3: Monocular_Crowded,27,0.12,right,right,0.3032650389995979,correct,1
Block 3: Monocular_Crowded,28,0.18,right,right,0.23234342000068864,correct,1
Block 3: Monocular_Crowded,29,0.043,right,right,0.27292757199938933,correct,1
Block 3: Monocular_Crowded,30,-0.06,right,left,0.31407382399993367,false,0
Block 3: Monocular_Crowded,31,-0.14,left,left,0.2524667090001458,correct,1
Block 3: Monocular_Crowded,32,-0.19,left,left,0.2830071289999978,correct,1
Block 3: Monocular_Crowded,33,0.131,right,right,1.0527316859997882,correct,1
Block 3: Monocular_Crowded,34,-0.206,left,left,0.5875167710000824,correct,1
Block 3: Monocular_Crowded,35,-0.16,left,left,0.2831003410001358,correct,1
Block 3: Monocular_Crowded,36,-0.11,left,left,0.8197093859998859,correct,1
Block 3: Monocular_Crowded,37,0.08,right,right,0.3134401789993717,correct,1
Block 3: Monocular_Crowded,38,0.2,right,right,0.293080110000119,correct,1
Block 3: Monocular_Crowded,39,-0.08,left,left,0.2729948679998415,correct,1
Block 3: Monocular_Crowded,40,-0.22,left,left,0.24267493199931778,correct,1
Block 3: Monocular_Crowded,41,0.206,right,right,0.2632412610000756,correct,1
Block 3: Monocular_Crowded,42,0.23,right,right,0.23220999499972095,correct,1
Block 3: Monocular_Crowded,43,0.06,right,right,0.2120044670000425,correct,1
Block 3: Monocular_Crowded,44,0.17,right,right,0.2831392779999078,correct,1
Block 3: Monocular_Crowded,45,-0.04,right,left,0.3035065599997324,false,0
Block 3: Monocular_Crowded,46,0.04,right,right,0.28317926399995486,correct,1
Block 3: Monocular_Crowded,47,-0.043,left,left,1.133676536999701,correct,1
Block 3: Monocular_Crowded,48,0.11,right,right,0.2024072599997453,correct,1
Block 3: Monocular_Crowded,49,0.16,right,right,0.2528378110000631,correct,1
Block 3: Monocular_Crowded,50,-0.01,right,left,0.20242502000019158,false,0
Block 3: Monocular_Crowded,51,-0.21,left,left,0.2936766869997882,correct,1
Block 3: Monocular_Crowded,52,-0.18,left,left,0.2833124240005418,correct,1
Block 3: Monocular_Crowded,53,0.206,right,right,0.3438011589996677,correct,1
Block 3: Monocular_Crowded,54,0.09,right,right,0.27298514999984036,correct,1
Block 3: Monocular_Crowded,55,0.07,right,right,0.5160303689999637,correct,1
Block 3: Monocular_Crowded,56,-0.18,left,left,0.28327029299998685,correct,1
Block 3: Monocular_Crowded,57,-0.03,left,left,0.33414209699913044,correct,1
Block 3: Monocular_Crowded,58,-0.09,left,left,1.165150722999897,correct,1
Block 3: Monocular_Crowded,59,-0.23,left,left,0.29295824200016796,correct,1
Block 3: Monocular_Crowded,60,0.19,right,right,0.36362653500054876,correct,1
Block 3: Monocular_Crowded,61,0.1,right,right,0.3234134519998406,correct,1
Block 3: Monocular_Crowded,62,0.01,left,right,0.3134653609995439,false,0
Block 3: Monocular_Crowded,63,0.18,right,right,0.2528678150001724,correct,1
Block 3: Monocular_Crowded,64,0.17,right,right,0.2526044260002891,correct,1
Block 3: Monocular_Crowded,65,0.13,right,right,0.37501440699998057,correct,1
Block 3: Monocular_Crowded,66,-0.13,left,left,0.263668611999492,correct,1
Block 3: Monocular_Crowded,67,0.19,right,right,0.43506791700019676,correct,1
Block 3: Monocular_Crowded,68,-0.2,left,left,0.35379399100020237,correct,1
Block 3: Monocular_Crowded,69,-0.2,left,left,0.8706970630000797,correct,1
Block 3: Monocular_Crowded,70,-0.131,left,left,0.43529493100049876,correct,1
Block 3: Monocular_Crowded,71,0.08,right,right,0.35423810399970534,correct,1
Block 3: Monocular_Crowded,72,-0.14,left,left,0.39433606900001905,correct,1
Block 3: Monocular_Crowded,73,-0.1,left,left,0.31395335999968665,correct,1
Block 3: Monocular_Crowded,74,0.05,left,right,0.2431037380001726,false,0
Block 3: Monocular_Crowded,75,0.2,right,right,0.2437359129999095,correct,1
Block 3: Monocular_Crowded,76,-0.12,left,left,0.31428711699936684,correct,1
Block 3: Monocular_Crowded,77,0.15,right,right,0.35378696099996887,correct,1
Block 3: Monocular_Crowded,78,0.03,left,right,0.41567531900000176,false,0
Block 3: Monocular_Crowded,79,-0.23,left,left,0.2526874870000029,correct,1
Block 3: Monocular_Crowded,80,0.043,left,right,0.7584285089997138,false,0
Block 3: Monocular_Crowded,81,0.14,right,right,0.32359097999960795,correct,1
Block 3: Monocular_Crowded,82,-0.02,left,left,0.34401052899920614,correct,1
Block 3: Monocular_Crowded,83,-0.1,right,left,0.5464343699995879,false,0
Block 3: Monocular_Crowded,84,-0.035,left,left,0.18172334100017906,correct,1
Block 3: Monocular_Crowded,85,-0.206,left,left,1.0426784560004307,correct,1
Block 3: Monocular_Crowded,86,0.21,right,right,0.29337003599994205,correct,1
Block 3: Monocular_Crowded,87,0.22,right,right,0.3235224620002555,correct,1
Block 3: Monocular_Crowded,88,0.035,right,right,0.5160663960004968,correct,1
Block 3: Monocular_Crowded,89,0.035,right,right,0.24265620299956936,correct,1
Block 3: Monocular_Crowded,90,0.131,right,right,0.3739745809998567,correct,1
Block 3: Monocular_Crowded,91,0.07,right,right,0.9930198319998453,correct,1
Block 3: Monocular_Crowded,92,0.22,right,right,0.22274814400043397,correct,1
Block 3: Monocular_Crowded,93,-0.17,left,left,0.375183797000318,correct,1
Block 3: Monocular_Crowded,94,-0.15,left,left,0.4454672789997858,correct,1
Block 3: Monocular_Crowded,95,0.21,right,right,0.26272168699961185,correct,1
Block 3: Monocular_Crowded,96,-0.01,left,left,0.4049093490002633,correct,1
Block 3: Monocular_Crowded,97,0.02,right,right,0.5680838749995019,correct,1
Block 3: Monocular_Crowded,98,-0.035,left,left,0.5463452479998523,correct,1
Block 3: Monocular_Crowded,99,-0.08,left,left,0.27294165500006784,correct,1
Block 3: Monocular_Crowded,100,-0.09,right,left,0.27289344200016785,false,0
Block 3: Monocular_Crowded,101,-0.02,right,left,0.4553348489998825,false,0
Block 3: Monocular_Crowded,102,-0.15,left,left,0.24254855700019107,correct,1
Block 3: Monocular_Crowded,103,0.05,right,right,0.506164059999719,correct,1
Block 3: Monocular_Crowded,104,-0.043,left,left,0.6776806349998878,correct,1
Block 3: Monocular_Crowded,105,0.16,right,right,0.41508363600041775,correct,1
Block 3: Monocular_Crowded,106,0.13,right,right,0.3134467930003666,correct,1
Block 3: Monocular_Crowded,107,0.11,right,right,0.4957712570003423,correct,1
Block 4: Monocular_Standard,0,0.18,right,right,0.8710342019994641,correct,1
Block 4: Monocular_Standard,1,-0.16,left,left,0.42489570599991566,correct,1
Block 4: Monocular_Standard,2,0.21,right,right,0.2832097000000431,correct,1
Block 4: Monocular_Standard,3,0.11,right,right,0.3337029030008125,correct,1
Block 4: Monocular_Standard,4,0.1,right,right,0.4348016499998266,correct,1
Block 4: Monocular_Standard,5,-0.13,left,left,0.313766115999897,correct,1
Block 4: Monocular_Standard,6,0.18,right,right,0.3848022860001947,correct,1
Block 4: Monocular_Standard,7,0.131,right,right,0.2829198619992894,correct,1
Block 4: Monocular_Standard,8,0.11,right,right,0.32375433600009274,correct,1
Block 4: Monocular_Standard,9,-0.12,left,left,0.3743404759998157,correct,1
Block 4: Monocular_Standard,10,-0.1,left,left,0.35437064800044027,correct,1
Block 4: Monocular_Standard,11,0.06,right,right,0.5372537140001441,correct,1
Block 4: Monocular_Standard,12,-0.15,left,left,0.333454440999958,correct,1
Block 4: Monocular_Standard,13,-0.04,left,left,0.46532722000029025,correct,1
Block 4: Monocular_Standard,14,0.01,left,right,0.32415615700028866,false,0
Block 4: Monocular_Standard,15,0.03,right,right,0.32384288299999753,correct,1
Block 4: Monocular_Standard,16,-0.23,left,left,0.2729746620007063,correct,1
Block 4: Monocular_Standard,17,-0.23,left,left,0.29456651200052875,correct,1
Block 4: Monocular_Standard,18,-0.035,right,left,0.2529637349998666,false,0
Block 4: Monocular_Standard,19,0.17,right,right,0.3233322389996829,correct,1
Block 4: Monocular_Standard,20,-0.206,left,left,0.32335374600006617,correct,1
Block 4: Monocular_Standard,21,-0.17,left,left,0.3335070410003027,correct,1
Block 4: Monocular_Standard,22,-0.06,left,left,0.42567485200015653,correct,1
Block 4: Monocular_Standard,23,0.23,right,right,0.4859371239999746,correct,1
Block 4: Monocular_Standard,24,0.14,right,right,0.42531114899975364,correct,1
Block 4: Monocular_Standard,25,-0.11,left,left,0.3232941109999956,correct,1
Block 4: Monocular_Standard,26,0.1,right,right,0.7193620489997556,correct,1
Block 4: Monocular_Standard,27,0.04,right,right,0.3945244120004645,correct,1
Block 4: Monocular_Standard,28,0.17,right,right,0.3138950160000604,correct,1
Block 4: Monocular_Standard,29,-0.09,left,left,0.4153893370003061,correct,1
Block 4: Monocular_Standard,30,-0.09,left,left,0.3539840240000558,correct,1
Block 4: Monocular_Standard,31,0.19,right,right,0.3846274920006181,correct,1
Block 4: Monocular_Standard,32,0.07,right,right,0.41529379500025243,correct,1
Block 4: Monocular_Standard,33,0.15,right,right,0.263283107999996,correct,1
Block 4: Monocular_Standard,34,0.22,right,right,0.32339907699952164,correct,1
Block 4: Monocular_Standard,35,-0.05,right,left,0.586726778999946,false,0
Block 4: Monocular_Standard,36,-0.131,left,left,0.37418295800034684,correct,1
Block 4: Monocular_Standard,37,-0.043,left,left,0.6176086240002405,correct,1
Block 4: Monocular_Standard,38,0.2,right,right,0.26300114700006816,correct,1
Block 4: Monocular_Standard,39,0.09,right,right,0.4350224320005509,correct,1
Block 4: Monocular_Standard,40,0.131,right,right,0.38457725799980835,correct,1
Block 4: Monocular_Standard,41,0.043,left,right,0.30347730799985584,false,0
Block 4: Monocular_Standard,42,0.035,right,right,0.39468595299968,correct,1
Block 4: Monocular_Standard,43,-0.2,left,left,0.3338764789996276,correct,1
Block 4: Monocular_Standard,44,-0.22,left,left,1.914390320000166,correct,1
Block 4: Monocular_Standard,45,-0.03,left,left,0.2834741140004553,correct,1
Block 4: Monocular_Standard,46,0.16,right,right,0.38461558499966486,correct,1
Block 4: Monocular_Standard,47,0.043,left,right,0.5463399569998728,false,0
Block 4: Monocular_Standard,48,-0.08,left,left,0.30344677199991565,correct,1
Block 4: Monocular_Standard,49,0.09,left,right,0.3134802929998841,false,0
Block 4: Monocular_Standard,50,0.22,right,right,0.3040304369997102,correct,1
Block 4: Monocular_Standard,51,-0.18,left,left,0.24235049500020978,correct,1
Block 4: Monocular_Standard,52,-0.131,left,left,0.1612672000001112,correct,1
Block 4: Monocular_Standard,53,-0.14,left,left,0.31341744200017274,correct,1
Block 4: Monocular_Standard,54,0.05,left,right,0.5868345119997684,false,0
Block 4: Monocular_Standard,55,0.23,right,right,0.2933207410005707,correct,1
Block 4: Monocular_Standard,56,0.08,right,right,0.38470316299935803,correct,1
Block 4: Monocular_Standard,57,-0.1,left,left,0.2326340129993696,correct,1
Block 4: Monocular_Standard,58,0.14,right,right,0.10075810400030605,correct,1
Block 4: Monocular_Standard,59,-0.21,left,left,0.3237508809997962,correct,1
Block 4: Monocular_Standard,60,-0.04,left,left,1.1241003719997025,correct,1
Block 4: Monocular_Standard,61,-0.17,right,left,0.3235536120000688,false,0
Block 4: Monocular_Standard,62,-0.11,left,left,0.36436822900031984,correct,1
Block 4: Monocular_Standard,63,-0.03,left,left,0.536965190999581,correct,1
Block 4: Monocular_Standard,64,0.206,right,right,0.2936436980007784,correct,1
Block 4: Monocular_Standard,65,0.02,right,right,0.6184538919997067,correct,1
Block 4: Monocular_Standard,66,0.19,right,right,0.4655094849995294,correct,1
Block 4: Monocular_Standard,67,-0.2,left,left,0.2838385599998219,correct,1
Block 4: Monocular_Standard,68,0.13,right,right,0.3542068520000612,correct,1
Block 4: Monocular_Standard,69,-0.14,left,left,0.3136931899998672,correct,1
Block 4: Monocular_Standard,70,-0.12,left,left,0.3843453199997384,correct,1
Block 4: Monocular_Standard,71,-0.16,left,left,0.38459716200031835,correct,1
Block 4: Monocular_Standard,72,-0.18,left,left,0.41480765899996186,correct,1
Block 4: Monocular_Standard,73,-0.07,left,left,0.4551198190001742,correct,1
Block 4: Monocular_Standard,74,0.08,right,right,0.9017342939996524,correct,1
Block 4: Monocular_Standard,75,0.035,right,right,0.45535516499967343,correct,1
Block 4: Monocular_Standard,76,0.15,right,right,0.42528367700015224,correct,1
Block 4: Monocular_Standard,77,0.13,right,right,0.31338879599934444,correct,1
Block 4: Monocular_Standard,78,0.2,right,right,0.26304120999975567,correct,1
Block 4: Monocular_Standard,79,-0.02,right,left,0.33411052500014193,false,0
Block 4: Monocular_Standard,80,-0.043,left,left,0.19214161799936846,correct,1
Block 4: Monocular_Standard,81,-0.08,left,left,0.4045827609998014,correct,1
Block 4: Monocular_Standard,82,0.07,right,right,0.31357923399991705,correct,1
Block 4: Monocular_Standard,83,0.206,right,right,0.3135868230001506,correct,1
Block 4: Monocular_Standard,84,0.12,right,right,0.3537531530000706,correct,1
Block 4: Monocular_Standard,85,-0.19,left,left,0.3352919090002615,correct,1
Block 4: Monocular_Standard,86,0.04,right,right,0.48530580699934944,correct,1
Block 4: Monocular_Standard,87,0.12,right,right,0.47572921400023915,correct,1
Block 4: Monocular_Standard,88,-0.02,right,left,0.3032426370000394,false,0
Block 4: Monocular_Standard,89,0.02,right,right,0.28328205600064393,correct,1
Block 4: Monocular_Standard,90,-0.206,left,left,0.36433923999993567,correct,1
Block 4: Monocular_Standard,91,-0.01,left,left,0.3035300629999256,correct,1
Block 4: Monocular_Standard,92,-0.13,left,left,0.3136723620000339,correct,1
Block 4: Monocular_Standard,93,0.03,left,right,0.5977640159999282,false,0
Block 4: Monocular_Standard,94,0.06,left,right,0.374526703999436,false,0
Block 4: Monocular_Standard,95,-0.035,left,left,0.4857663769998908,correct,1
Block 4: Monocular_Standard,96,0.01,left,right,0.8188984079997681,false,0
Block 4: Monocular_Standard,97,0.05,left,right,0.44545907599967904,false,0
Block 4: Monocular_Standard,98,0.21,right,right,1.2045400990000417,correct,1
Block 4: Monocular_Standard,99,-0.01,left,left,0.4552007929996762,correct,1
Block 4: Monocular_Standard,100,-0.15,left,left,0.37438060299973586,correct,1
Block 4: Monocular_Standard,101,-0.22,left,left,0.6991352680006457,correct,1
Block 4: Monocular_Standard,102,-0.07,left,left,0.27331417499954114,correct,1
Block 4: Monocular_Standard,103,0.16,right,right,0.28281168499961495,correct,1
Block 4: Monocular_Standard,104,-0.19,left,left,0.2832666820004306,correct,1
Block 4: Monocular_Standard,105,-0.21,left,left,0.3551135300003807,correct,1
Block 4: Monocular_Standard,106,-0.06,left,left,0.3539711809999062,correct,1
Block 4: Monocular_Standard,107,-0.05,left,left,0.617750612999771,correct,1
