label,trials,offset,keys,direction,response_time,accuracy,response_numeric
Block 1: Binocular_Standard,0,0.2,right,right,1.6856412680000403,correct,1
Block 1: Binocular_Standard,1,0.2,right,right,0.7692052639999929,correct,1
Block 1: Binocular_Standard,2,-0.2,left,left,0.5764213420000033,correct,1
Block 1: Binocular_Standard,3,0.19,right,right,0.5056388560000187,correct,1
Block 1: Binocular_Standard,4,-0.2,left,left,0.5468339800000876,correct,1
Block 1: Binocular_Standard,5,0.19,right,right,0.5973594060000096,correct,1
Block 1: Binocular_Standard,6,0.18,right,right,0.4752363540000033,correct,1
Block 1: Binocular_Standard,7,-0.19,left,left,0.6174481769999147,correct,1
Block 1: Binocular_Standard,8,-0.19,left,left,1.4182302660000232,correct,1
Block 1: Binocular_Standard,9,-0.18,left,left,0.850822117000007,correct,1
Block 1: Binocular_Standard,10,-0.18,left,left,0.7187753000000612,correct,1
Block 1: Binocular_Standard,11,-0.16999999999999998,left,left,0.6679907330000106,correct,1
Block 1: Binocular_Standard,12,0.18,right,right,0.48564702099997703,correct,1
Block 1: Binocular_Standard,13,0.16999999999999998,right,right,0.5667942849999008,correct,1
Block 1: Binocular_Standard,14,0.16999999999999998,right,right,0.7899863129999858,correct,1
Block 1: Binocular_Standard,15,-0.16999999999999998,left,left,0.5061117749999084,correct,1
Block 1: Binocular_Standard,16,0.15999999999999998,right,right,0.5361459830000967,correct,1
Block 1: Binocular_Standard,17,0.15999999999999998,right,right,0.4756866640000226,correct,1
Block 1: Binocular_Standard,18,-0.15999999999999998,left,left,0.5163785180000104,correct,1
Block 1: Binocular_Standard,19,0.14999999999999997,right,right,0.44560242299996844,correct,1
Block 1: Binocular_Standard,20,0.14999999999999997,right,right,1.0225192329999118,correct,1
Block 1: Binocular_Standard,21,0.13999999999999996,right,right,0.53669534200003,correct,1
Block 1: Binocular_Standard,22,0.13999999999999996,right,right,0.7694053750000194,correct,1
Block 1: Binocular_Standard,23,0.12999999999999995,right,right,0.8204496629999767,correct,1
Block 1: Binocular_Standard,24,-0.15999999999999998,left,left,0.5463776879998932,correct,1
Block 1: Binocular_Standard,25,-0.14999999999999997,left,left,0.840950267999915,correct,1
Block 1: Binocular_Standard,26,0.12999999999999995,right,right,0.6280903220000482,correct,1
Block 1: Binocular_Standard,27,0.11999999999999995,right,right,0.7291149060000635,correct,1
Block 1: Binocular_Standard,28,0.11999999999999995,right,right,1.5188910419999502,correct,1
Block 1: Binocular_Standard,29,0.10999999999999996,right,right,0.6782236900000953,correct,1
Block 1: Binocular_Standard,30,-0.14999999999999997,left,left,0.5367482280000786,correct,1
Block 1: Binocular_Standard,31,0.10999999999999996,right,right,0.5766294310000148,correct,1
Block 1: Binocular_Standard,32,-0.13999999999999996,left,left,0.6888667489999989,correct,1
Block 1: Binocular_Standard,33,-0.13999999999999996,left,left,0.8507054329999164,correct,1
Block 1: Binocular_Standard,34,-0.12999999999999995,left,left,0.7590765529999999,correct,1
Block 1: Binocular_Standard,35,0.09999999999999996,left,right,1.4285339409999551,false,0
Block 1: Binocular_Standard,36,0.10999999999999996,right,right,1.0629855580000367,correct,1
Block 1: Binocular_Standard,37,0.10999999999999996,left,right,2.0461209559999816,false,0
Block 1: Binocular_Standard,38,-0.12999999999999995,left,left,1.8322863059999008,correct,1
Block 1: Binocular_Standard,39,0.11999999999999995,right,right,0.6576563659999692,correct,1
Block 1: Binocular_Standard,40,0.11999999999999995,right,right,4.759318112999949,correct,1
Block 1: Binocular_Standard,41,0.10999999999999996,right,right,2.0156087159999743,correct,1
Block 1: Binocular_Standard,42,0.10999999999999996,right,right,1.569869520999987,correct,1
Block 1: Binocular_Standard,43,-0.11999999999999995,left,left,0.941207525999971,correct,1
Block 1: Binocular_Standard,44,-0.11999999999999995,left,left,0.8401647499999854,correct,1
Block 1: Binocular_Standard,45,-0.10999999999999996,left,left,1.264940690000003,correct,1
Block 1: Binocular_Standard,46,-0.10999999999999996,left,left,1.3672927779999782,correct,1
Block 1: Binocular_Standard,47,-0.09999999999999996,left,left,0.9209163830000762,correct,1
Block 1: Binocular_Standard,48,0.09999999999999996,right,right,0.6276362899999413,correct,1
Block 1: Binocular_Standard,49,0.09999999999999996,right,right,1.2255481880000616,correct,1
Block 1: Binocular_Standard,50,0.08999999999999997,right,right,1.3262769259999914,correct,1
Block 1: Binocular_Standard,51,-0.09999999999999996,left,left,0.6985023080000019,correct,1
Block 1: Binocular_Standard,52,0.08999999999999997,right,right,1.154347031000043,correct,1
Block 1: Binocular_Standard,53,0.07999999999999997,right,right,0.8299021230000108,correct,1
Block 1: Binocular_Standard,54,-0.08999999999999997,left,left,0.6678324389999943,correct,1
Block 1: Binocular_Standard,55,0.07999999999999997,right,right,0.566951347999975,correct,1
Block 1: Binocular_Standard,56,-0.08999999999999997,left,left,0.45507212999996227,correct,1
Block 1: Binocular_Standard,57,0.06999999999999998,right,right,2.1069520309999916,correct,1
Block 1: Binocular_Standard,58,0.06999999999999998,right,right,0.8098480209999934,correct,1
Block 1: Binocular_Standard,59,0.05999999999999998,right,right,0.9215054310000141,correct,1
Block 1: Binocular_Standard,60,-0.07999999999999997,left,left,1.0832424129999936,correct,1
Block 1: Binocular_Standard,61,0.05999999999999998,right,right,0.8299928579999687,correct,1
Block 1: Binocular_Standard,62,0.049999999999999975,right,right,0.7797901959999081,correct,1
Block 1: Binocular_Standard,63,-0.07999999999999997,left,left,0.6279933079999864,correct,1
Block 1: Binocular_Standard,64,-0.06999999999999998,left,left,0.7488920129999315,correct,1
Block 1: Binocular_Standard,65,0.049999999999999975,right,right,1.447742756000025,correct,1
Block 1: Binocular_Standard,66,-0.06999999999999998,left,left,0.566394235999951,correct,1
Block 1: Binocular_Standard,67,0.03999999999999997,left,right,1.7012520749999567,false,0
Block 1: Binocular_Standard,68,-0.05999999999999998,left,left,0.880654566999965,correct,1
Block 1: Binocular_Standard,69,-0.05999999999999998,left,left,0.6682647760001146,correct,1
Block 1: Binocular_Standard,70,0.049999999999999975,right,right,0.566785315000061,correct,1
Block 1: Binocular_Standard,71,-0.049999999999999975,left,left,0.7294786639999984,correct,1
Block 1: Binocular_Standard,72,-0.049999999999999975,left,left,0.9215511439999773,correct,1
Block 1: Binocular_Standard,73,0.049999999999999975,right,right,1.276021837999906,correct,1
Block 1: Binocular_Standard,74,-0.03999999999999997,left,left,0.5261790330000622,correct,1
Block 1: Binocular_Standard,75,-0.03999999999999997,left,left,0.6480115659999228,correct,1
Block 1: Binocular_Standard,76,-0.02999999999999997,left,left,0.7695550680000451,correct,1
Block 1: Binocular_Standard,77,0.03999999999999997,right,right,2.3297967390001304,correct,1
Block 1: Binocular_Standard,78,0.03999999999999997,right,right,1.539138548999972,correct,1
Block 1: Binocular_Standard,79,-0.02999999999999997,left,left,0.617370044999916,correct,1
Block 1: Binocular_Standard,80,0.02999999999999997,left,right,1.5387336430001142,false,0
Block 1: Binocular_Standard,81,-0.01999999999999997,left,left,0.8602789899998697,correct,1
Block 1: Binocular_Standard,82,-0.01999999999999997,left,left,1.184016462000045,correct,1
Block 1: Binocular_Standard,83,-0.009999999999999969,left,left,1.164423485000043,correct,1
Block 1: Binocular_Standard,84,-0.009999999999999969,right,left,0.7590700410000863,false,0
Block 1: Binocular_Standard,85,-0.01999999999999997,left,left,0.6879295339999771,correct,1
Block 1: Binocular_Standard,86,0.03999999999999997,right,right,0.5674278050000794,correct,1
Block 1: Binocular_Standard,87,-0.01999999999999997,left,left,0.7495384960000138,correct,1
Block 1: Binocular_Standard,88,-0.009999999999999969,left,left,0.5262709429998722,correct,1
Block 1: Binocular_Standard,89,0.03999999999999997,right,right,0.5060686450001413,correct,1
Block 1: Binocular_Standard,90,0.02999999999999997,right,right,1.7828956990001643,correct,1
Block 1: Binocular_Standard,91,0.02999999999999997,right,right,1.0531973560000552,correct,1
Block 1: Binocular_Standard,92,-0.009999999999999969,right,left,0.8706602689999272,false,0
Block 1: Binocular_Standard,93,-0.01999999999999997,left,left,1.3567494129999886,correct,1
Block 1: Binocular_Standard,94,0.01999999999999997,right,right,0.8298445630000515,correct,1
Block 1: Binocular_Standard,95,-0.01999999999999997,left,left,0.7687652619999881,correct,1
Block 1: Binocular_Standard,96,0.01999999999999997,right,right,0.6986757629999829,correct,1
Block 1: Binocular_Standard,97,-0.009999999999999969,left,left,2.724830850999979,correct,1
Block 1: Binocular_Standard,98,-0.009999999999999969,left,left,1.0027705779998541,correct,1
Block 1: Binocular_Standard,99,3.122502256758253e-17,left,left,1.3165613710000343,correct,1
Block 1: Binocular_Standard,100,3.122502256758253e-17,left,left,1.2558570640001108,correct,1
Block 1: Binocular_Standard,101,0.009999999999999969,right,right,0.9018448849999459,correct,1
Block 1: Binocular_Standard,102,0.009999999999999969,right,right,0.9213900409999951,correct,1
Block 1: Binocular_Standard,103,0.010000000000000031,left,left,0.6476393929999631,correct,1
Block 1: Binocular_Standard,104,-3.122502256758253e-17,left,right,1.0732663459998548,false,0
Block 1: Binocular_Standard,105,0.009999999999999969,left,right,1.3775022819997957,false,0
Block 1: Binocular_Standard,106,0.010000000000000031,left,left,1.458498044999942,correct,1
Block 1: Binocular_Standard,107,0.01999999999999997,left,right,1.0429248590000952,false,0
Block 1: Binocular_Standard,108,0.02000000000000003,right,left,0.6078508650000458,false,0
Block 1: Binocular_Standard,109,0.010000000000000031,left,left,0.7805503769998268,correct,1
Block 1: Binocular_Standard,110,0.010000000000000031,left,left,0.8506661429998985,correct,1
Block 1: Binocular_Standard,111,0.02999999999999997,right,right,0.5772550110000338,correct,1
Block 1: Binocular_Standard,112,0.02999999999999997,right,right,0.6075186410000697,correct,1
Block 1: Binocular_Standard,113,0.02000000000000003,right,left,0.9419599899999866,false,0
Block 1: Binocular_Standard,114,0.01999999999999997,right,right,3.6464421910000056,correct,1
Block 1: Binocular_Standard,115,0.010000000000000031,left,left,0.6883233860000928,correct,1
Block 1: Binocular_Standard,116,0.010000000000000031,left,left,0.6277313069999764,correct,1
Block 1: Binocular_Standard,117,0.01999999999999997,right,right,0.4656848729998728,correct,1
Block 1: Binocular_Standard,118,0.02000000000000003,left,left,0.5770341960001133,correct,1
Block 1: Binocular_Standard,119,0.02000000000000003,left,left,1.388041972999872,correct,1
Block 2: Binocular_Crowded,0,-0.2,left,left,6.564426924999907,correct,1
Block 2: Binocular_Crowded,1,0.2,right,right,0.6576893460000974,correct,1
Block 2: Binocular_Crowded,2,-0.2,right,left,1.4070243149999442,false,0
Block 2: Binocular_Crowded,3,-0.21000000000000002,right,left,1.4880836869999712,false,0
Block 2: Binocular_Crowded,4,-0.22000000000000003,left,left,0.6375006470000244,correct,1
Block 2: Binocular_Crowded,5,0.2,right,right,3.251383204999911,correct,1
Block 2: Binocular_Crowded,6,-0.22000000000000003,right,left,3.7772065980000207,false,0
Block 2: Binocular_Crowded,7,0.19,right,right,1.2958322430001772,correct,1
Block 2: Binocular_Crowded,8,0.19,right,right,1.0324557830001595,correct,1
Block 2: Binocular_Crowded,9,-0.23000000000000004,left,left,0.7896381040000051,correct,1
Block 2: Binocular_Crowded,10,-0.23000000000000004,left,left,1.1538680260000547,correct,1
Block 2: Binocular_Crowded,11,0.18,right,right,0.6885599940001157,correct,1
Block 2: Binocular_Crowded,12,0.18,right,right,0.7593700590000481,correct,1
Block 2: Binocular_Crowded,13,-0.22000000000000003,left,left,0.8096830380000029,correct,1
Block 2: Binocular_Crowded,14,-0.22000000000000003,left,left,0.7085788519998459,correct,1
Block 2: Binocular_Crowded,15,0.16999999999999998,right,right,0.6378297740000107,correct,1
Block 2: Binocular_Crowded,16,0.16999999999999998,left,right,0.506480971000201,false,0
Block 2: Binocular_Crowded,17,0.18,right,right,2.9771611710000343,correct,1
Block 2: Binocular_Crowded,18,0.18,right,right,0.8911395580000772,correct,1
Block 2: Binocular_Crowded,19,0.16999999999999998,right,right,0.8816109010001583,correct,1
Block 2: Binocular_Crowded,20,0.16999999999999998,right,right,0.647787931000039,correct,1
Block 2: Binocular_Crowded,21,-0.21000000000000002,left,left,0.8314138390001062,correct,1
Block 2: Binocular_Crowded,22,-0.21000000000000002,left,left,1.0732323330000781,correct,1
Block 2: Binocular_Crowded,23,-0.2,right,left,0.8705360630001451,false,0
Block 2: Binocular_Crowded,24,-0.21000000000000002,left,left,0.8408864149998863,correct,1
Block 2: Binocular_Crowded,25,0.15999999999999998,left,right,1.469593199000201,false,0
Block 2: Binocular_Crowded,26,0.16999999999999998,right,right,0.8507615610001267,correct,1
Block 2: Binocular_Crowded,27,0.16999999999999998,right,right,0.8309621920000154,correct,1
Block 2: Binocular_Crowded,28,0.15999999999999998,right,right,1.2653489379999883,correct,1
Block 2: Binocular_Crowded,29,-0.21000000000000002,left,left,1.2160110659999646,correct,1
Block 2: Binocular_Crowded,30,0.15999999999999998,left,right,1.731430790000104,false,0
Block 2: Binocular_Crowded,31,-0.2,right,left,1.0239329830001225,false,0
Block 2: Binocular_Crowded,32,-0.21000000000000002,left,left,2.5522415660000206,correct,1
Block 2: Binocular_Crowded,33,0.16999999999999998,right,right,3.0180374120000124,correct,1
Block 2: Binocular_Crowded,34,-0.21000000000000002,left,left,0.7188103410001077,correct,1
Block 2: Binocular_Crowded,35,-0.2,left,left,1.124107254999899,correct,1
Block 2: Binocular_Crowded,36,-0.2,left,left,1.105208088000154,correct,1
Block 2: Binocular_Crowded,37,0.16999999999999998,right,right,0.6888118670001404,correct,1
Block 2: Binocular_Crowded,38,0.15999999999999998,right,right,0.729536871999926,correct,1
Block 2: Binocular_Crowded,39,-0.19,left,left,0.738782092000065,correct,1
Block 2: Binocular_Crowded,40,0.15999999999999998,right,right,0.7491368020000664,correct,1
Block 2: Binocular_Crowded,41,-0.19,left,left,0.5060001320000538,correct,1
Block 2: Binocular_Crowded,42,0.14999999999999997,right,right,0.6579653399999188,correct,1
Block 2: Binocular_Crowded,43,-0.18,left,left,0.3842927889998009,correct,1
Block 2: Binocular_Crowded,44,-0.18,left,left,0.952024695000091,correct,1
Block 2: Binocular_Crowded,45,0.14999999999999997,right,right,0.7189827909999167,correct,1
Block 2: Binocular_Crowded,46,-0.16999999999999998,left,left,0.3642812110001614,correct,1
Block 2: Binocular_Crowded,47,0.13999999999999996,right,right,0.5061104330000035,correct,1
Block 2: Binocular_Crowded,48,-0.16999999999999998,left,left,0.57680811299997,correct,1
Block 2: Binocular_Crowded,49,0.13999999999999996,right,right,0.3030637479998859,correct,1
Block 2: Binocular_Crowded,50,0.12999999999999995,right,right,0.6279016720000072,correct,1
Block 2: Binocular_Crowded,51,-0.15999999999999998,left,left,0.6377061610000965,correct,1
Block 2: Binocular_Crowded,52,-0.15999999999999998,left,left,0.7589338000000225,correct,1
Block 2: Binocular_Crowded,53,0.12999999999999995,left,right,1.5390762389999963,false,0
Block 2: Binocular_Crowded,54,-0.14999999999999997,right,left,1.2056956459998673,false,0
Block 2: Binocular_Crowded,55,0.13999999999999996,right,right,0.9617075260000547,correct,1
Block 2: Binocular_Crowded,56,0.13999999999999996,right,right,0.658117299999958,correct,1
Block 2: Binocular_Crowded,57,0.12999999999999995,right,right,0.8704956449998917,correct,1
Block 2: Binocular_Crowded,58,-0.15999999999999998,left,left,0.5769328639999003,correct,1
Block 2: Binocular_Crowded,59,-0.15999999999999998,left,left,0.577739973000007,correct,1
Block 2: Binocular_Crowded,60,-0.14999999999999997,left,left,0.7597206709999682,correct,1
Block 2: Binocular_Crowded,61,-0.14999999999999997,left,left,0.556895324000152,correct,1
Block 2: Binocular_Crowded,62,-0.13999999999999996,left,left,1.0928818810000394,correct,1
Block 2: Binocular_Crowded,63,0.12999999999999995,right,right,0.6473586160000195,correct,1
Block 2: Binocular_Crowded,64,-0.13999999999999996,left,left,0.7688615729998673,correct,1
Block 2: Binocular_Crowded,65,-0.12999999999999995,left,left,0.3843191799999204,correct,1
Block 2: Binocular_Crowded,66,0.11999999999999995,right,right,0.6585458530000778,correct,1
Block 2: Binocular_Crowded,67,0.11999999999999995,left,right,1.2761122670001441,false,0
Block 2: Binocular_Crowded,68,-0.12999999999999995,left,left,0.5362997480001468,correct,1
Block 2: Binocular_Crowded,69,-0.11999999999999995,left,left,0.7594294580001133,correct,1
Block 2: Binocular_Crowded,70,-0.11999999999999995,left,left,0.5971308840000802,correct,1
Block 2: Binocular_Crowded,71,-0.10999999999999996,left,left,0.8717718520001654,correct,1
Block 2: Binocular_Crowded,72,0.12999999999999995,right,right,0.5775707959999181,correct,1
Block 2: Binocular_Crowded,73,0.12999999999999995,right,right,0.6678634270001567,correct,1
Block 2: Binocular_Crowded,74,-0.10999999999999996,left,left,0.6984314989999802,correct,1
Block 2: Binocular_Crowded,75,0.11999999999999995,right,right,0.5066714209999645,correct,1
Block 2: Binocular_Crowded,76,-0.09999999999999996,left,left,0.7287562999999864,correct,1
Block 2: Binocular_Crowded,77,0.11999999999999995,right,right,0.8301617240001633,correct,1
Block 2: Binocular_Crowded,78,-0.09999999999999996,left,left,0.5160566629999721,correct,1
Block 2: Binocular_Crowded,79,0.10999999999999996,right,right,0.7088788410001143,correct,1
Block 2: Binocular_Crowded,80,-0.08999999999999997,left,left,0.7086123330000191,correct,1
Block 2: Binocular_Crowded,81,-0.08999999999999997,right,left,1.4890081700000337,false,0
Block 2: Binocular_Crowded,82,-0.09999999999999996,left,left,0.9109986749999734,correct,1
Block 2: Binocular_Crowded,83,0.10999999999999996,right,right,0.6480555480000021,correct,1
Block 2: Binocular_Crowded,84,-0.09999999999999996,left,left,0.7996629259998826,correct,1
Block 2: Binocular_Crowded,85,-0.08999999999999997,left,left,0.7895378949999667,correct,1
Block 2: Binocular_Crowded,86,0.09999999999999996,right,right,0.6886062640001,correct,1
Block 2: Binocular_Crowded,87,0.09999999999999996,right,right,1.0532955260000563,correct,1
Block 2: Binocular_Crowded,88,-0.08999999999999997,left,left,0.5058647359999213,correct,1
Block 2: Binocular_Crowded,89,0.08999999999999997,right,right,1.5187193120000302,correct,1
Block 2: Binocular_Crowded,90,0.08999999999999997,right,right,0.6779136960001324,correct,1
Block 2: Binocular_Crowded,91,-0.07999999999999997,left,left,0.5868561380000301,correct,1
Block 2: Binocular_Crowded,92,0.07999999999999997,right,right,0.7185506209998493,correct,1
Block 2: Binocular_Crowded,93,0.07999999999999997,right,right,1.2048885820001942,correct,1
Block 2: Binocular_Crowded,94,-0.07999999999999997,left,left,0.6684030609999354,correct,1
Block 2: Binocular_Crowded,95,0.06999999999999998,left,right,2.2489871149998635,false,0
Block 2: Binocular_Crowded,96,0.07999999999999997,right,right,0.6384531169999264,correct,1
Block 2: Binocular_Crowded,97,-0.06999999999999998,left,left,0.7493968290000339,correct,1
Block 2: Binocular_Crowded,98,0.07999999999999997,left,right,2.268942172999914,false,0
Block 2: Binocular_Crowded,99,0.08999999999999997,right,right,0.6580025979999391,correct,1
Block 2: Binocular_Crowded,100,0.08999999999999997,right,right,0.7493559800000185,correct,1
Block 2: Binocular_Crowded,101,-0.06999999999999998,right,left,1.6501557999999932,false,0
Block 2: Binocular_Crowded,102,-0.07999999999999997,left,left,0.6479594990000805,correct,1
Block 2: Binocular_Crowded,103,0.07999999999999997,right,right,0.6169891310000821,correct,1
Block 2: Binocular_Crowded,104,-0.07999999999999997,left,left,0.7189049380001507,correct,1
Block 2: Binocular_Crowded,105,-0.06999999999999998,left,left,1.7327311030001056,correct,1
Block 2: Binocular_Crowded,106,0.07999999999999997,right,right,1.0627460330001668,correct,1
Block 2: Binocular_Crowded,107,0.06999999999999998,left,right,1.0026950849999139,false,0
Block 2: Binocular_Crowded,108,0.07999999999999997,right,right,0.75889676099996,correct,1
Block 2: Binocular_Crowded,109,0.07999999999999997,left,right,1.782170812000004,false,0
Block 2: Binocular_Crowded,110,0.08999999999999997,right,right,1.620111215000179,correct,1
Block 2: Binocular_Crowded,111,0.08999999999999997,left,right,0.7687214630000199,false,0
Block 2: Binocular_Crowded,112,-0.06999999999999998,right,left,0.7995998239998698,false,0
Block 2: Binocular_Crowded,113,-0.07999999999999997,left,left,0.577595287999884,correct,1
Block 2: Binocular_Crowded,114,0.09999999999999996,right,right,0.7287570199998754,correct,1
Block 2: Binocular_Crowded,115,-0.07999999999999997,left,left,0.759205196000039,correct,1
Block 2: Binocular_Crowded,116,0.09999999999999996,right,right,1.1745118389999334,correct,1
Block 2: Binocular_Crowded,117,0.08999999999999997,right,right,1.3066283560001466,correct,1
Block 2: Binocular_Crowded,118,-0.06999999999999998,left,left,0.8404172460000154,correct,1
Block 2: Binocular_Crowded,119,-0.06999999999999998,right,left,1.3966420140000082,false,0
Block 3: Monocular_Standard,0,-0.2,left,left,2.776301007000029,correct,1
Block 3: Monocular_Standard,1,-0.2,left,left,0.6476172069999393,correct,1
Block 3: Monocular_Standard,2,-0.19,left,left,0.5063524970000799,correct,1
Block 3: Monocular_Standard,3,0.2,right,right,0.48588374600012685,correct,1
Block 3: Monocular_Standard,4,0.2,right,right,0.708980277999899,correct,1
Block 3: Monocular_Standard,5,-0.19,left,left,0.587528458999941,correct,1
Block 3: Monocular_Standard,6,0.19,right,right,0.7897598530000778,correct,1
Block 3: Monocular_Standard,7,0.19,left,right,2.167389091999894,false,0
Block 3: Monocular_Standard,8,-0.18,left,left,1.0021627900000567,correct,1
Block 3: Monocular_Standard,9,-0.18,right,left,6.745126660000096,false,0
Block 3: Monocular_Standard,10,0.2,right,right,0.6474727759998586,correct,1
Block 3: Monocular_Standard,11,0.2,right,right,0.6274174810000659,correct,1
Block 3: Monocular_Standard,12,0.19,right,right,1.0218472120000115,correct,1
Block 3: Monocular_Standard,13,-0.19,left,left,0.46521065299998554,correct,1
Block 3: Monocular_Standard,14,-0.19,left,left,0.5871912899999643,correct,1
Block 3: Monocular_Standard,15,-0.18,left,left,0.627549756999997,correct,1
Block 3: Monocular_Standard,16,0.19,right,right,0.6073240499999883,correct,1
Block 3: Monocular_Standard,17,-0.18,left,left,0.7592357220000849,correct,1
Block 3: Monocular_Standard,18,0.18,right,right,0.5058586439999999,correct,1
Block 3: Monocular_Standard,19,0.18,right,right,0.4653840339999533,correct,1
Block 3: Monocular_Standard,20,0.16999999999999998,right,right,0.5666214329999093,correct,1
Block 3: Monocular_Standard,21,0.16999999999999998,right,right,0.5263941339999292,correct,1
Block 3: Monocular_Standard,22,-0.16999999999999998,left,left,0.4656288520000089,correct,1
Block 3: Monocular_Standard,23,-0.16999999999999998,left,left,0.7496578630000386,correct,1
Block 3: Monocular_Standard,24,-0.15999999999999998,left,left,0.7291534880000654,correct,1
Block 3: Monocular_Standard,25,-0.15999999999999998,left,left,0.46562238899991826,correct,1
Block 3: Monocular_Standard,26,0.15999999999999998,right,right,0.5568221129999529,correct,1
Block 3: Monocular_Standard,27,-0.14999999999999997,left,left,0.5568524390000675,correct,1
Block 3: Monocular_Standard,28,-0.14999999999999997,left,left,0.7388925159998507,correct,1
Block 3: Monocular_Standard,29,-0.13999999999999996,left,left,0.6171865210001215,correct,1
Block 3: Monocular_Standard,30,0.15999999999999998,right,right,0.6382066660000874,correct,1
Block 3: Monocular_Standard,31,-0.13999999999999996,left,left,0.5874879279999732,correct,1
Block 3: Monocular_Standard,32,0.14999999999999997,right,right,0.5364179130001503,correct,1
Block 3: Monocular_Standard,33,-0.12999999999999995,left,left,0.8094468750000487,correct,1
Block 3: Monocular_Standard,34,0.14999999999999997,right,right,1.4168063769998298,correct,1
Block 3: Monocular_Standard,35,0.13999999999999996,right,right,1.651223317999893,correct,1
Block 3: Monocular_Standard,36,-0.12999999999999995,left,left,0.5160211140000683,correct,1
Block 3: Monocular_Standard,37,0.13999999999999996,right,right,0.5162823659998139,correct,1
Block 3: Monocular_Standard,38,-0.11999999999999995,left,left,0.4959712180000224,correct,1
Block 3: Monocular_Standard,39,0.12999999999999995,right,right,0.4753776950001338,correct,1
Block 3: Monocular_Standard,40,0.12999999999999995,right,right,0.6582774930000141,correct,1
Block 3: Monocular_Standard,41,-0.11999999999999995,left,left,0.5360562870000649,correct,1
Block 3: Monocular_Standard,42,0.11999999999999995,right,right,0.8507413459999498,correct,1
Block 3: Monocular_Standard,43,-0.10999999999999996,left,left,0.6580406319999383,correct,1
Block 3: Monocular_Standard,44,0.11999999999999995,right,right,0.47588201300004584,correct,1
Block 3: Monocular_Standard,45,0.10999999999999996,right,right,0.5165193810000801,correct,1
Block 3: Monocular_Standard,46,0.10999999999999996,right,right,4.050864410000031,correct,1
Block 3: Monocular_Standard,47,-0.10999999999999996,left,left,0.7289826209998864,correct,1
Block 3: Monocular_Standard,48,0.09999999999999996,right,right,0.5869009309999456,correct,1
Block 3: Monocular_Standard,49,0.09999999999999996,right,right,0.8199146110000584,correct,1
Block 3: Monocular_Standard,50,-0.09999999999999996,left,left,0.739013451999881,correct,1
Block 3: Monocular_Standard,51,0.08999999999999997,right,right,0.7079824429999917,correct,1
Block 3: Monocular_Standard,52,-0.09999999999999996,left,left,0.8403126349999184,correct,1
Block 3: Monocular_Standard,53,-0.08999999999999997,left,left,0.820469581999987,correct,1
Block 3: Monocular_Standard,54,-0.08999999999999997,left,left,0.5773151880000569,correct,1
Block 3: Monocular_Standard,55,-0.07999999999999997,left,left,0.5874021480001375,correct,1
Block 3: Monocular_Standard,56,-0.07999999999999997,left,left,0.8302518650000366,correct,1
Block 3: Monocular_Standard,57,-0.06999999999999998,left,left,0.7800544639999316,correct,1
Block 3: Monocular_Standard,58,0.08999999999999997,right,right,0.5868661310000789,correct,1
Block 3: Monocular_Standard,59,-0.06999999999999998,left,left,0.4957148910000342,correct,1
Block 3: Monocular_Standard,60,0.07999999999999997,right,right,0.7494717839999794,correct,1
Block 3: Monocular_Standard,61,0.07999999999999997,right,right,0.779704651999964,correct,1
Block 3: Monocular_Standard,62,-0.05999999999999998,left,left,0.5562691699999505,correct,1
Block 3: Monocular_Standard,63,0.06999999999999998,right,right,0.6883133979999911,correct,1
Block 3: Monocular_Standard,64,-0.05999999999999998,left,left,0.587608272999887,correct,1
Block 3: Monocular_Standard,65,0.06999999999999998,right,right,0.5872648600000048,correct,1
Block 3: Monocular_Standard,66,0.05999999999999998,right,right,1.4691202170001816,correct,1
Block 3: Monocular_Standard,67,-0.049999999999999975,left,left,0.597298432000116,correct,1
Block 3: Monocular_Standard,68,-0.049999999999999975,left,left,1.4073705600001176,correct,1
Block 3: Monocular_Standard,69,0.05999999999999998,right,right,0.5870683480000025,correct,1
Block 3: Monocular_Standard,70,-0.03999999999999997,right,left,1.5800346179998996,false,0
Block 3: Monocular_Standard,71,0.049999999999999975,right,right,0.6481471049999072,correct,1
Block 3: Monocular_Standard,72,-0.049999999999999975,left,left,0.5356827909999993,correct,1
Block 3: Monocular_Standard,73,0.049999999999999975,right,right,0.6377429620001749,correct,1
Block 3: Monocular_Standard,74,0.03999999999999997,right,right,1.1638410569998996,correct,1
Block 3: Monocular_Standard,75,0.03999999999999997,right,right,0.7188947380000172,correct,1
Block 3: Monocular_Standard,76,0.02999999999999997,right,right,1.4174937969999064,correct,1
Block 3: Monocular_Standard,77,0.02999999999999997,left,right,1.427894269000035,false,0
Block 3: Monocular_Standard,78,0.03999999999999997,right,right,0.45509214699995937,correct,1
Block 3: Monocular_Standard,79,-0.049999999999999975,left,left,0.6174064900001213,correct,1
Block 3: Monocular_Standard,80,-0.03999999999999997,left,left,0.6982777159998932,correct,1
Block 3: Monocular_Standard,81,-0.03999999999999997,left,left,0.7896741899999142,correct,1
Block 3: Monocular_Standard,82,0.03999999999999997,right,right,1.0133097030000044,correct,1
Block 3: Monocular_Standard,83,-0.02999999999999997,left,left,0.8500235420001445,correct,1
Block 3: Monocular_Standard,84,-0.02999999999999997,left,left,0.7389925620000213,correct,1
Block 3: Monocular_Standard,85,-0.01999999999999997,left,left,0.9218068669999866,correct,1
Block 3: Monocular_Standard,86,-0.01999999999999997,left,left,1.2456441490000998,correct,1
Block 3: Monocular_Standard,87,0.02999999999999997,right,right,0.7388321349999387,correct,1
Block 3: Monocular_Standard,88,0.02999999999999997,right,right,1.4177429549999943,correct,1
Block 3: Monocular_Standard,89,-0.009999999999999969,right,left,1.498210884999935,false,0
Block 3: Monocular_Standard,90,0.01999999999999997,left,right,0.8003492830000596,false,0
Block 3: Monocular_Standard,91,-0.01999999999999997,left,left,0.7691331610001271,correct,1
Block 3: Monocular_Standard,92,0.02999999999999997,right,right,0.5871717749998879,correct,1
Block 3: Monocular_Standard,93,-0.01999999999999997,left,left,0.5564679090000482,correct,1
Block 3: Monocular_Standard,94,0.02999999999999997,right,right,0.4857694840000022,correct,1
Block 3: Monocular_Standard,95,-0.009999999999999969,left,left,0.6374281979999523,correct,1
Block 3: Monocular_Standard,96,0.01999999999999997,left,right,1.3062333919999674,false,0
Block 3: Monocular_Standard,97,0.02999999999999997,right,right,0.7694864170000528,correct,1
Block 3: Monocular_Standard,98,-0.009999999999999969,left,left,0.5570517749999908,correct,1
Block 3: Monocular_Standard,99,0.02999999999999997,right,right,0.4961276920000728,correct,1
Block 3: Monocular_Standard,100,3.122502256758253e-17,left,left,0.5262444830000277,correct,1
Block 3: Monocular_Standard,101,3.122502256758253e-17,right,left,0.5164412970000285,false,0
Block 3: Monocular_Standard,102,-0.009999999999999969,right,left,1.0124949030000607,false,0
Block 3: Monocular_Standard,103,0.01999999999999997,left,right,0.7599728979998872,false,0
Block 3: Monocular_Standard,104,0.02999999999999997,right,right,0.7691220470001099,correct,1
Block 3: Monocular_Standard,105,0.02999999999999997,right,right,1.397816045999889,correct,1
Block 3: Monocular_Standard,106,0.01999999999999997,right,right,1.5696219129999918,correct,1
Block 3: Monocular_Standard,107,-0.01999999999999997,left,left,0.809936597999922,correct,1
Block 3: Monocular_Standard,108,-0.01999999999999997,right,left,1.185023223999906,false,0
Block 3: Monocular_Standard,109,-0.02999999999999997,left,left,0.8502032419999068,correct,1
Block 3: Monocular_Standard,110,0.01999999999999997,left,right,1.0945049119998203,false,0
Block 3: Monocular_Standard,111,-0.02999999999999997,left,left,0.860975739999958,correct,1
Block 3: Monocular_Standard,112,0.02999999999999997,right,right,0.6372483500001636,correct,1
Block 3: Monocular_Standard,113,0.02999999999999997,left,right,0.7491459799998665,false,0
Block 3: Monocular_Standard,114,0.03999999999999997,right,right,0.7290079599999899,correct,1
Block 3: Monocular_Standard,115,-0.01999999999999997,right,left,2.6535730349999085,false,0
Block 3: Monocular_Standard,116,-0.02999999999999997,left,left,0.6175333410001258,correct,1
Block 3: Monocular_Standard,117,0.03999999999999997,right,right,0.7090196999999989,correct,1
Block 3: Monocular_Standard,118,0.02999999999999997,right,right,0.9115458440001021,correct,1
Block 3: Monocular_Standard,119,-0.02999999999999997,right,left,1.0022899440000401,false,0
Block 4: Monocular_Crowded,0,0.2,right,right,1.1851241719998598,correct,1
Block 4: Monocular_Crowded,1,0.2,left,right,1.154825069000026,false,0
Block 4: Monocular_Crowded,2,-0.2,right,left,0.5164963269999134,false,0
Block 4: Monocular_Crowded,3,-0.21000000000000002,left,left,0.718525740999894,correct,1
Block 4: Monocular_Crowded,4,0.21000000000000002,right,right,0.7795394629999919,correct,1
Block 4: Monocular_Crowded,5,-0.21000000000000002,left,left,0.9616803609999351,correct,1
Block 4: Monocular_Crowded,6,0.21000000000000002,right,right,1.2964391880000221,correct,1
Block 4: Monocular_Crowded,7,-0.2,left,left,0.5875138520000291,correct,1
Block 4: Monocular_Crowded,8,-0.2,left,left,0.8000043940000978,correct,1
Block 4: Monocular_Crowded,9,-0.19,right,left,1.1036931579999418,false,0
Block 4: Monocular_Crowded,10,0.2,left,right,0.9314889949998815,false,0
Block 4: Monocular_Crowded,11,0.21000000000000002,right,right,0.8097492090000742,correct,1
Block 4: Monocular_Crowded,12,0.21000000000000002,right,right,0.7793569340001341,correct,1
Block 4: Monocular_Crowded,13,-0.2,left,left,0.5062240400000064,correct,1
Block 4: Monocular_Crowded,14,-0.2,left,left,0.48632590099987283,correct,1
Block 4: Monocular_Crowded,15,-0.19,left,left,1.0328700369998387,correct,1
Block 4: Monocular_Crowded,16,-0.19,left,left,0.3237184099998558,correct,1
Block 4: Monocular_Crowded,17,-0.18,left,left,0.9203200039999047,correct,1
Block 4: Monocular_Crowded,18,0.2,right,right,0.7490578319998349,correct,1
Block 4: Monocular_Crowded,19,-0.18,left,left,0.8716365230000065,correct,1
Block 4: Monocular_Crowded,20,-0.16999999999999998,left,left,1.3070079780000015,correct,1
Block 4: Monocular_Crowded,21,0.2,right,right,0.44532264899999063,correct,1
Block 4: Monocular_Crowded,22,-0.16999999999999998,left,left,1.4984401540000363,correct,1
Block 4: Monocular_Crowded,23,-0.15999999999999998,right,left,0.7892812519999097,false,0
Block 4: Monocular_Crowded,24,-0.16999999999999998,left,left,1.4482860630000687,correct,1
Block 4: Monocular_Crowded,25,-0.16999999999999998,right,left,0.8402889909998521,false,0
Block 4: Monocular_Crowded,26,-0.18,left,left,0.9920789509999395,correct,1
Block 4: Monocular_Crowded,27,0.19,right,right,1.1040518380000321,correct,1
Block 4: Monocular_Crowded,28,0.19,left,right,1.9639692709999963,false,0
Block 4: Monocular_Crowded,29,0.2,right,right,1.5890064279999478,correct,1
Block 4: Monocular_Crowded,30,-0.18,left,left,0.9923542189999353,correct,1
Block 4: Monocular_Crowded,31,0.2,right,right,1.0020279169998503,correct,1
Block 4: Monocular_Crowded,32,0.19,left,right,0.8003361539999787,false,0
Block 4: Monocular_Crowded,33,0.2,right,right,0.70901783599993,correct,1
Block 4: Monocular_Crowded,34,0.2,right,right,0.8498351490000005,correct,1
Block 4: Monocular_Crowded,35,-0.16999999999999998,left,left,0.7800714550000976,correct,1
Block 4: Monocular_Crowded,36,-0.16999999999999998,left,left,0.9613754469999094,correct,1
Block 4: Monocular_Crowded,37,0.19,right,right,0.7386324639999202,correct,1
Block 4: Monocular_Crowded,38,-0.15999999999999998,left,left,0.7081891290001749,correct,1
Block 4: Monocular_Crowded,39,0.19,right,right,0.7487129399999048,correct,1
Block 4: Monocular_Crowded,40,0.18,right,right,0.7492567049998797,correct,1
Block 4: Monocular_Crowded,41,-0.15999999999999998,left,left,1.0231573179999032,correct,1
Block 4: Monocular_Crowded,42,0.18,right,right,0.7186594749998676,correct,1
Block 4: Monocular_Crowded,43,0.16999999999999998,left,right,2.6229301690000284,false,0
Block 4: Monocular_Crowded,44,0.18,right,right,0.5060532559998592,correct,1
Block 4: Monocular_Crowded,45,0.18,right,right,0.8503496350001569,correct,1
Block 4: Monocular_Crowded,46,-0.14999999999999997,left,left,3.341903552000076,correct,1
Block 4: Monocular_Crowded,47,0.16999999999999998,right,right,0.22249476800016055,correct,1
Block 4: Monocular_Crowded,48,-0.14999999999999997,left,left,0.8903680079999958,correct,1
Block 4: Monocular_Crowded,49,-0.13999999999999996,left,left,0.8809478329999365,correct,1
Block 4: Monocular_Crowded,50,-0.13999999999999996,left,left,0.6781510499999968,correct,1
Block 4: Monocular_Crowded,51,0.16999999999999998,right,right,0.7285824489999868,correct,1
Block 4: Monocular_Crowded,52,0.15999999999999998,right,right,0.7093393180000476,correct,1
Block 4: Monocular_Crowded,53,0.15999999999999998,right,right,2.8163429240000823,correct,1
Block 4: Monocular_Crowded,54,-0.12999999999999995,left,left,1.5296805959999347,correct,1
Block 4: Monocular_Crowded,55,0.14999999999999997,right,right,0.42513317299994924,correct,1
Block 4: Monocular_Crowded,56,0.14999999999999997,right,right,0.8805326040001091,correct,1
Block 4: Monocular_Crowded,57,-0.12999999999999995,left,left,0.4859208039999885,correct,1
Block 4: Monocular_Crowded,58,-0.11999999999999995,left,left,0.9113912470002106,correct,1
Block 4: Monocular_Crowded,59,-0.11999999999999995,right,left,1.0328874570000153,false,0
Block 4: Monocular_Crowded,60,-0.12999999999999995,left,left,0.6076252419998127,correct,1
Block 4: Monocular_Crowded,61,0.13999999999999996,right,right,0.6480445209999743,correct,1
Block 4: Monocular_Crowded,62,-0.12999999999999995,left,left,0.8712126519999401,correct,1
Block 4: Monocular_Crowded,63,-0.11999999999999995,right,left,0.7401603020000493,false,0
Block 4: Monocular_Crowded,64,-0.12999999999999995,left,left,0.5160167720000572,correct,1
Block 4: Monocular_Crowded,65,0.13999999999999996,right,right,0.7793505619999905,correct,1
Block 4: Monocular_Crowded,66,0.12999999999999995,right,right,0.84039101999997,correct,1
Block 4: Monocular_Crowded,67,-0.12999999999999995,left,left,0.9314518969999881,correct,1
Block 4: Monocular_Crowded,68,-0.11999999999999995,left,left,1.1950054300000374,correct,1
Block 4: Monocular_Crowded,69,0.12999999999999995,right,right,0.2021207279999544,correct,1
Block 4: Monocular_Crowded,70,-0.11999999999999995,right,left,3.0492343249998157,false,0
Block 4: Monocular_Crowded,71,0.11999999999999995,right,right,0.516146714000115,correct,1
Block 4: Monocular_Crowded,72,0.11999999999999995,right,right,0.8201078679999227,correct,1
Block 4: Monocular_Crowded,73,0.10999999999999996,right,right,1.0629051989999425,correct,1
Block 4: Monocular_Crowded,74,-0.12999999999999995,left,left,0.6581113209999785,correct,1
Block 4: Monocular_Crowded,75,-0.12999999999999995,left,left,1.04224239999985,correct,1
Block 4: Monocular_Crowded,76,-0.11999999999999995,left,left,0.8401366289999714,correct,1
Block 4: Monocular_Crowded,77,-0.11999999999999995,left,left,0.7590017960001205,correct,1
Block 4: Monocular_Crowded,78,0.10999999999999996,left,right,3.3027874730000804,false,0
Block 4: Monocular_Crowded,79,0.11999999999999995,right,right,0.7095741219998217,correct,1
Block 4: Monocular_Crowded,80,0.11999999999999995,right,right,0.6378032560000975,correct,1
Block 4: Monocular_Crowded,81,0.10999999999999996,right,right,0.8096096790000047,correct,1
Block 4: Monocular_Crowded,82,0.10999999999999996,right,right,0.8807394639998165,correct,1
Block 4: Monocular_Crowded,83,-0.10999999999999996,left,left,0.5673105409998698,correct,1
Block 4: Monocular_Crowded,84,-0.10999999999999996,left,left,0.5060529529998803,correct,1
Block 4: Monocular_Crowded,85,-0.09999999999999996,left,left,1.458178493000105,correct,1
Block 4: Monocular_Crowded,86,-0.09999999999999996,left,left,0.7188260349998927,correct,1
Block 4: Monocular_Crowded,87,-0.08999999999999997,left,left,0.3949159100000088,correct,1
Block 4: Monocular_Crowded,88,-0.08999999999999997,left,left,0.6884232259999408,correct,1
Block 4: Monocular_Crowded,89,0.09999999999999996,right,right,0.7589848999998594,correct,1
Block 4: Monocular_Crowded,90,0.09999999999999996,right,right,1.0832421540001178,correct,1
Block 4: Monocular_Crowded,91,0.08999999999999997,right,right,0.6072352090000095,correct,1
Block 4: Monocular_Crowded,92,0.08999999999999997,right,right,0.7999570679999124,correct,1
Block 4: Monocular_Crowded,93,0.07999999999999997,right,right,0.7691655369999353,correct,1
Block 4: Monocular_Crowded,94,-0.07999999999999997,right,left,0.7900509309999961,false,0
Block 4: Monocular_Crowded,95,0.07999999999999997,left,right,0.6480570359999547,false,0
Block 4: Monocular_Crowded,96,-0.08999999999999997,right,left,0.7189574630001516,false,0
Block 4: Monocular_Crowded,97,0.08999999999999997,left,right,0.6173238359999687,false,0
Block 4: Monocular_Crowded,98,0.09999999999999996,right,right,0.8911303170000338,correct,1
Block 4: Monocular_Crowded,99,0.09999999999999996,right,right,0.7088443909999569,correct,1
Block 4: Monocular_Crowded,100,0.08999999999999997,left,right,1.0537948490000417,false,0
Block 4: Monocular_Crowded,101,0.09999999999999996,right,right,0.5165277219998643,correct,1
Block 4: Monocular_Crowded,102,0.09999999999999996,right,right,0.8407176539999455,correct,1
Block 4: Monocular_Crowded,103,0.08999999999999997,right,right,0.7693707739999809,correct,1
Block 4: Monocular_Crowded,104,0.08999999999999997,left,right,0.6487258059999021,false,0
Block 4: Monocular_Crowded,105,0.09999999999999996,right,right,0.7188983809999172,correct,1
Block 4: Monocular_Crowded,106,-0.09999999999999996,left,left,0.9617918250000912,correct,1
Block 4: Monocular_Crowded,107,-0.09999999999999996,left,left,0.4453580030001376,correct,1
Block 4: Monocular_Crowded,108,-0.08999999999999997,left,left,1.196053602999882,correct,1
Block 4: Monocular_Crowded,109,0.09999999999999996,right,right,1.1337537270001121,correct,1
Block 4: Monocular_Crowded,110,-0.08999999999999997,left,left,0.7800546170001326,correct,1
Block 4: Monocular_Crowded,111,0.08999999999999997,left,right,1.1439824770000087,false,0
Block 4: Monocular_Crowded,112,-0.07999999999999997,left,left,1.3670489790001739,correct,1
Block 4: Monocular_Crowded,113,-0.07999999999999997,left,left,0.3843705469998895,correct,1
Block 4: Monocular_Crowded,114,0.09999999999999996,right,right,0.9822238760000346,correct,1
Block 4: Monocular_Crowded,115,-0.06999999999999998,left,left,1.0944220710000536,correct,1
Block 4: Monocular_Crowded,116,-0.06999999999999998,left,left,0.7697338330001458,correct,1
Block 4: Monocular_Crowded,117,-0.05999999999999998,left,left,2.197080068000105,correct,1
Block 4: Monocular_Crowded,118,0.09999999999999996,right,right,0.8096647909999319,correct,1
Block 4: Monocular_Crowded,119,-0.05999999999999998,right,left,1.6515975190000063,false,0
