label,trials,offset,keys,direction,response_time,accuracy,response_numeric
Block 1: Binocular_Standard,0,-0.2,left,left,0.41860822800003916,correct,1
Block 1: Binocular_Standard,1,0.2,right,right,0.32489252400000623,correct,1
Block 1: Binocular_Standard,2,0.2,right,right,0.3437611660001494,correct,1
Block 1: Binocular_Standard,3,0.19,right,right,0.26277681999999913,correct,1
Block 1: Binocular_Standard,4,-0.2,left,left,0.8510520499999075,correct,1
Block 1: Binocular_Standard,5,0.19,right,right,0.9411720109999351,correct,1
Block 1: Binocular_Standard,6,-0.19,left,left,0.5362662150000688,correct,1
Block 1: Binocular_Standard,7,-0.19,left,left,0.5772114610001609,correct,1
Block 1: Binocular_Standard,8,0.18,right,right,0.49643486900004064,correct,1
Block 1: Binocular_Standard,9,-0.18,left,left,1.0319797120000658,correct,1
Block 1: Binocular_Standard,10,-0.18,left,left,0.870527433999996,correct,1
Block 1: Binocular_Standard,11,0.18,left,right,1.944508254000084,false,0
Block 1: Binocular_Standard,12,0.19,right,right,0.456008994000058,correct,1
Block 1: Binocular_Standard,13,0.19,right,right,0.608216683000137,correct,1
Block 1: Binocular_Standard,14,0.18,right,right,0.4553240430000187,correct,1
Block 1: Binocular_Standard,15,0.18,right,right,0.6272938120000617,correct,1
Block 1: Binocular_Standard,16,-0.16999999999999998,left,left,0.8300248040000042,correct,1
Block 1: Binocular_Standard,17,-0.16999999999999998,left,left,0.8601852970000436,correct,1
Block 1: Binocular_Standard,18,-0.15999999999999998,left,left,1.0020395349999944,correct,1
Block 1: Binocular_Standard,19,-0.15999999999999998,left,left,0.5062708180000755,correct,1
Block 1: Binocular_Standard,20,-0.14999999999999997,left,left,0.49560730100006367,correct,1
Block 1: Binocular_Standard,21,0.16999999999999998,right,right,0.7589127139999619,correct,1
Block 1: Binocular_Standard,22,0.16999999999999998,right,right,0.5769066220000241,correct,1
Block 1: Binocular_Standard,23,0.15999999999999998,right,right,0.3945145939999293,correct,1
Block 1: Binocular_Standard,24,-0.14999999999999997,left,left,0.4450531029999638,correct,1
Block 1: Binocular_Standard,25,-0.13999999999999996,left,left,0.5068321349999678,correct,1
Block 1: Binocular_Standard,26,-0.13999999999999996,left,left,0.5361669290000464,correct,1
Block 1: Binocular_Standard,27,-0.12999999999999995,left,left,0.4957798279999679,correct,1
Block 1: Binocular_Standard,28,0.15999999999999998,right,right,0.40569086999994397,correct,1
Block 1: Binocular_Standard,29,-0.12999999999999995,left,left,0.4351323149999189,correct,1
Block 1: Binocular_Standard,30,0.14999999999999997,right,right,0.5468473509999967,correct,1
Block 1: Binocular_Standard,31,-0.11999999999999995,left,left,0.39461672500010536,correct,1
Block 1: Binocular_Standard,32,-0.11999999999999995,left,left,0.5866835540000466,correct,1
Block 1: Binocular_Standard,33,-0.10999999999999996,left,left,0.5057858749999014,correct,1
Block 1: Binocular_Standard,34,-0.10999999999999996,left,left,0.35432071099990026,correct,1
Block 1: Binocular_Standard,35,-0.09999999999999996,left,left,0.32349730000009913,correct,1
Block 1: Binocular_Standard,36,-0.09999999999999996,left,left,0.3539600789999895,correct,1
Block 1: Binocular_Standard,37,0.14999999999999997,right,right,0.4657846879999852,correct,1
Block 1: Binocular_Standard,38,0.13999999999999996,right,right,0.41474102300003324,correct,1
Block 1: Binocular_Standard,39,-0.08999999999999997,left,left,0.6371342130000812,correct,1
Block 1: Binocular_Standard,40,0.13999999999999996,right,right,0.3643591869999909,correct,1
Block 1: Binocular_Standard,41,0.12999999999999995,right,right,0.54634734199999,correct,1
Block 1: Binocular_Standard,42,-0.08999999999999997,left,left,0.4954211439999199,correct,1
Block 1: Binocular_Standard,43,-0.07999999999999997,left,left,0.4451511770000707,correct,1
Block 1: Binocular_Standard,44,0.12999999999999995,right,right,0.3441175689999909,correct,1
Block 1: Binocular_Standard,45,-0.07999999999999997,left,left,0.9115391149998686,correct,1
Block 1: Binocular_Standard,46,0.11999999999999995,right,right,0.333877456999744,correct,1
Block 1: Binocular_Standard,47,-0.06999999999999998,left,left,0.4248898650002957,correct,1
Block 1: Binocular_Standard,48,0.11999999999999995,right,right,0.3744644190001054,correct,1
Block 1: Binocular_Standard,49,0.10999999999999996,right,right,0.48549977399989075,correct,1
Block 1: Binocular_Standard,50,0.10999999999999996,right,right,0.4049477480002679,correct,1
Block 1: Binocular_Standard,51,0.09999999999999996,right,right,0.45537318300011975,correct,1
Block 1: Binocular_Standard,52,-0.06999999999999998,left,left,0.4557077190002019,correct,1
Block 1: Binocular_Standard,53,0.09999999999999996,right,right,0.4956261780002933,correct,1
Block 1: Binocular_Standard,54,-0.05999999999999998,left,left,0.37471960500033674,correct,1
Block 1: Binocular_Standard,55,0.08999999999999997,right,right,0.40467359700005545,correct,1
Block 1: Binocular_Standard,56,-0.05999999999999998,left,left,1.012843956999859,correct,1
Block 1: Binocular_Standard,57,0.08999999999999997,right,right,0.4145572259999426,correct,1
Block 1: Binocular_Standard,58,-0.049999999999999975,left,left,0.7292789670000275,correct,1
Block 1: Binocular_Standard,59,-0.049999999999999975,left,left,0.5467466360000799,correct,1
Block 1: Binocular_Standard,60,0.07999999999999997,right,right,0.4553380370002742,correct,1
Block 1: Binocular_Standard,61,0.07999999999999997,right,right,0.5062062449997029,correct,1
Block 1: Binocular_Standard,62,-0.03999999999999997,left,left,1.001766095000221,correct,1
Block 1: Binocular_Standard,63,-0.03999999999999997,left,left,0.5669774680000046,correct,1
Block 1: Binocular_Standard,64,0.06999999999999998,right,right,0.38449224799978765,correct,1
Block 1: Binocular_Standard,65,0.06999999999999998,right,right,0.546645855999941,correct,1
Block 1: Binocular_Standard,66,-0.02999999999999997,left,left,2.0562502400002813,correct,1
Block 1: Binocular_Standard,67,0.05999999999999998,right,right,0.37449019499990754,correct,1
Block 1: Binocular_Standard,68,0.05999999999999998,right,right,0.475432763000299,correct,1
Block 1: Binocular_Standard,69,-0.02999999999999997,right,left,0.748811582000144,false,0
Block 1: Binocular_Standard,70,0.049999999999999975,right,right,0.5160056449999502,correct,1
Block 1: Binocular_Standard,71,-0.03999999999999997,left,left,0.5157219259999692,correct,1
Block 1: Binocular_Standard,72,0.049999999999999975,right,right,0.6784373609998511,correct,1
Block 1: Binocular_Standard,73,0.03999999999999997,left,right,0.9826426820000052,false,0
Block 1: Binocular_Standard,74,-0.03999999999999997,left,left,0.6373566400002346,correct,1
Block 1: Binocular_Standard,75,-0.02999999999999997,left,left,0.9520691570000963,correct,1
Block 1: Binocular_Standard,76,-0.02999999999999997,left,left,0.779418127000099,correct,1
Block 1: Binocular_Standard,77,0.049999999999999975,right,right,0.4046276220001346,correct,1
Block 1: Binocular_Standard,78,0.049999999999999975,right,right,0.8906019480000396,correct,1
Block 1: Binocular_Standard,79,-0.01999999999999997,left,left,1.7519456760001049,correct,1
Block 1: Binocular_Standard,80,-0.01999999999999997,left,left,0.667848855000102,correct,1
Block 1: Binocular_Standard,81,0.03999999999999997,right,right,0.4956679530000656,correct,1
Block 1: Binocular_Standard,82,-0.009999999999999969,left,left,0.7492049239999687,correct,1
Block 1: Binocular_Standard,83,0.03999999999999997,right,right,0.384551730000112,correct,1
Block 1: Binocular_Standard,84,-0.009999999999999969,right,left,0.6074700039998788,false,0
Block 1: Binocular_Standard,85,-0.01999999999999997,right,left,1.0635103550002896,false,0
Block 1: Binocular_Standard,86,0.02999999999999997,left,right,0.4857353319998765,false,0
Block 1: Binocular_Standard,87,-0.02999999999999997,left,left,0.6068456130001323,correct,1
Block 1: Binocular_Standard,88,0.03999999999999997,right,right,0.7188418139999158,correct,1
Block 1: Binocular_Standard,89,-0.02999999999999997,right,left,1.0025450550001551,false,0
Block 1: Binocular_Standard,90,0.03999999999999997,right,right,0.6171574879999753,correct,1
Block 1: Binocular_Standard,91,0.02999999999999997,right,right,0.8095995919998131,correct,1
Block 1: Binocular_Standard,92,0.02999999999999997,right,right,0.6679251730001852,correct,1
Block 1: Binocular_Standard,93,-0.03999999999999997,left,left,0.9819831509998949,correct,1
Block 1: Binocular_Standard,94,-0.03999999999999997,left,left,0.5660296589999234,correct,1
Block 1: Binocular_Standard,95,0.01999999999999997,left,right,1.762412556000072,false,0
Block 1: Binocular_Standard,96,0.02999999999999997,right,right,0.4551009649999287,correct,1
Block 1: Binocular_Standard,97,0.02999999999999997,right,right,0.7288929639998969,correct,1
Block 1: Binocular_Standard,98,0.01999999999999997,left,right,0.9926053130002401,false,0
Block 1: Binocular_Standard,99,0.02999999999999997,right,right,1.5394077449996075,correct,1
Block 1: Binocular_Standard,100,-0.02999999999999997,left,left,1.0018446369999765,correct,1
Block 1: Binocular_Standard,101,-0.02999999999999997,left,left,0.6578640840002663,correct,1
Block 1: Binocular_Standard,102,0.02999999999999997,left,right,0.7797985080001126,false,0
Block 1: Binocular_Standard,103,-0.01999999999999997,left,left,0.6382338979997257,correct,1
Block 1: Binocular_Standard,104,0.03999999999999997,left,right,1.09338466600002,false,0
Block 1: Binocular_Standard,105,0.049999999999999975,right,right,0.5868884910000816,correct,1
Block 1: Binocular_Standard,106,-0.01999999999999997,right,left,2.905899404000138,false,0
Block 1: Binocular_Standard,107,0.049999999999999975,right,right,0.465431248999721,correct,1
Block 1: Binocular_Standard,108,-0.02999999999999997,left,left,0.6983285269998305,correct,1
Block 1: Binocular_Standard,109,-0.02999999999999997,left,left,0.5663927230002628,correct,1
Block 1: Binocular_Standard,110,-0.01999999999999997,left,left,0.5161019410002154,correct,1
Block 1: Binocular_Standard,111,0.03999999999999997,right,right,0.5364558600003875,correct,1
Block 1: Binocular_Standard,112,0.03999999999999997,right,right,1.7924215550001463,correct,1
Block 1: Binocular_Standard,113,0.02999999999999997,right,right,0.5463210749999234,correct,1
Block 1: Binocular_Standard,114,-0.01999999999999997,left,left,1.2756953719999728,correct,1
Block 1: Binocular_Standard,115,-0.009999999999999969,left,left,0.8601485819999652,correct,1
Block 1: Binocular_Standard,116,-0.009999999999999969,left,left,0.8403986969997277,correct,1
Block 1: Binocular_Standard,117,0.02999999999999997,right,right,0.5569646469998588,correct,1
Block 1: Binocular_Standard,118,0.01999999999999997,right,right,0.6578230699997221,correct,1
Block 1: Binocular_Standard,119,3.122502256758253e-17,right,left,1.0120990840000559,false,0
Block 2: Binocular_Crowded,0,0.2,right,right,0.7487787179998122,correct,1
Block 2: Binocular_Crowded,1,0.2,right,right,0.606833037999877,correct,1
Block 2: Binocular_Crowded,2,-0.2,right,left,0.5975651650001055,false,0
Block 2: Binocular_Crowded,3,-0.21000000000000002,left,left,1.0730875580002248,correct,1
Block 2: Binocular_Crowded,4,0.19,right,right,0.5263408179998805,correct,1
Block 2: Binocular_Crowded,5,-0.21000000000000002,right,left,1.9346146670000053,false,0
Block 2: Binocular_Crowded,6,-0.22000000000000003,left,left,0.5873741129998962,correct,1
Block 2: Binocular_Crowded,7,-0.22000000000000003,left,left,0.7792648330000702,correct,1
Block 2: Binocular_Crowded,8,0.19,right,right,0.40497613699972135,correct,1
Block 2: Binocular_Crowded,9,0.18,right,right,0.5766988049999782,correct,1
Block 2: Binocular_Crowded,10,-0.21000000000000002,right,left,0.5363251809999383,false,0
Block 2: Binocular_Crowded,11,-0.22000000000000003,left,left,0.6074721439999848,correct,1
Block 2: Binocular_Crowded,12,0.18,right,right,0.4550790019998203,correct,1
Block 2: Binocular_Crowded,13,0.16999999999999998,right,right,0.45525722799993673,correct,1
Block 2: Binocular_Crowded,14,-0.22000000000000003,left,left,0.5261532639997313,correct,1
Block 2: Binocular_Crowded,15,0.16999999999999998,right,right,0.3641567810000197,correct,1
Block 2: Binocular_Crowded,16,-0.21000000000000002,right,left,0.7590593850000005,false,0
Block 2: Binocular_Crowded,17,0.15999999999999998,left,right,2.1060581919996366,false,0
Block 2: Binocular_Crowded,18,-0.22000000000000003,left,left,0.48538506899967615,correct,1
Block 2: Binocular_Crowded,19,0.16999999999999998,right,right,0.7487555529996825,correct,1
Block 2: Binocular_Crowded,20,-0.22000000000000003,left,left,0.5873362079996696,correct,1
Block 2: Binocular_Crowded,21,0.16999999999999998,right,right,0.526205531999949,correct,1
Block 2: Binocular_Crowded,22,0.15999999999999998,right,right,0.6477520160001404,correct,1
Block 2: Binocular_Crowded,23,0.15999999999999998,right,right,0.5362612679996346,correct,1
Block 2: Binocular_Crowded,24,0.14999999999999997,right,right,0.5258019739999327,correct,1
Block 2: Binocular_Crowded,25,-0.21000000000000002,left,left,0.5869506399999409,correct,1
Block 2: Binocular_Crowded,26,0.14999999999999997,right,right,0.5261892319999788,correct,1
Block 2: Binocular_Crowded,27,0.13999999999999996,right,right,0.5160658689997035,correct,1
Block 2: Binocular_Crowded,28,-0.21000000000000002,left,left,0.7695613529999719,correct,1
Block 2: Binocular_Crowded,29,-0.2,right,left,0.6072119149998798,false,0
Block 2: Binocular_Crowded,30,0.13999999999999996,right,right,0.5163174190001882,correct,1
Block 2: Binocular_Crowded,31,-0.21000000000000002,left,left,0.5565319370002726,correct,1
Block 2: Binocular_Crowded,32,-0.21000000000000002,left,left,0.8401902749997134,correct,1
Block 2: Binocular_Crowded,33,0.12999999999999995,right,right,0.4860832150002352,correct,1
Block 2: Binocular_Crowded,34,0.12999999999999995,right,right,0.5060940240000491,correct,1
Block 2: Binocular_Crowded,35,0.11999999999999995,right,right,0.5668929349999416,correct,1
Block 2: Binocular_Crowded,36,-0.2,left,left,0.8497721939997973,correct,1
Block 2: Binocular_Crowded,37,-0.2,left,left,0.7796763189999183,correct,1
Block 2: Binocular_Crowded,38,0.11999999999999995,right,right,0.505734541000038,correct,1
Block 2: Binocular_Crowded,39,0.10999999999999996,right,right,0.48605573100030597,correct,1
Block 2: Binocular_Crowded,40,-0.19,right,left,0.8199361000001772,false,0
Block 2: Binocular_Crowded,41,-0.2,left,left,0.7589973409999402,correct,1
Block 2: Binocular_Crowded,42,-0.2,left,left,0.8712149829998452,correct,1
Block 2: Binocular_Crowded,43,0.10999999999999996,right,right,0.5865074519997506,correct,1
Block 2: Binocular_Crowded,44,-0.19,right,left,0.5663827960001981,false,0
Block 2: Binocular_Crowded,45,0.09999999999999996,right,right,0.6067386949998763,correct,1
Block 2: Binocular_Crowded,46,-0.2,left,left,0.7598353230000612,correct,1
Block 2: Binocular_Crowded,47,0.09999999999999996,right,right,1.1140394700000797,correct,1
Block 2: Binocular_Crowded,48,-0.2,left,left,1.052836637999917,correct,1
Block 2: Binocular_Crowded,49,0.08999999999999997,right,right,0.6576661429999149,correct,1
Block 2: Binocular_Crowded,50,0.08999999999999997,right,right,1.6408033640000212,correct,1
Block 2: Binocular_Crowded,51,-0.19,left,left,0.6986550139999963,correct,1
Block 2: Binocular_Crowded,52,0.07999999999999997,right,right,1.1847163510001337,correct,1
Block 2: Binocular_Crowded,53,0.07999999999999997,right,right,0.7188641170000665,correct,1
Block 2: Binocular_Crowded,54,-0.19,left,left,0.9817162580002332,correct,1
Block 2: Binocular_Crowded,55,0.06999999999999998,right,right,2.7346639720003623,correct,1
Block 2: Binocular_Crowded,56,-0.18,left,left,0.6884483469998486,correct,1
Block 2: Binocular_Crowded,57,0.06999999999999998,right,right,1.0836924189998172,correct,1
Block 2: Binocular_Crowded,58,-0.18,left,left,0.6681965429997945,correct,1
Block 2: Binocular_Crowded,59,0.05999999999999998,left,right,0.6682848410000588,false,0
Block 2: Binocular_Crowded,60,-0.16999999999999998,left,left,0.577048647999618,correct,1
Block 2: Binocular_Crowded,61,0.06999999999999998,left,right,0.8809603830000015,false,0
Block 2: Binocular_Crowded,62,-0.16999999999999998,left,left,1.0228273140000965,correct,1
Block 2: Binocular_Crowded,63,0.07999999999999997,right,right,0.7591879699998572,correct,1
Block 2: Binocular_Crowded,64,0.07999999999999997,right,right,0.6781797700000425,correct,1
Block 2: Binocular_Crowded,65,-0.15999999999999998,left,left,0.7090121830001408,correct,1
Block 2: Binocular_Crowded,66,0.06999999999999998,left,right,2.4299210469998798,false,0
Block 2: Binocular_Crowded,67,0.07999999999999997,right,right,0.7797399169999153,correct,1
Block 2: Binocular_Crowded,68,-0.15999999999999998,left,left,0.5159541870002613,correct,1
Block 2: Binocular_Crowded,69,0.07999999999999997,right,right,0.6472313690001101,correct,1
Block 2: Binocular_Crowded,70,0.06999999999999998,right,right,0.6881613549999201,correct,1
Block 2: Binocular_Crowded,71,-0.14999999999999997,left,left,0.6681716660000347,correct,1
Block 2: Binocular_Crowded,72,-0.14999999999999997,left,left,0.5665866889999052,correct,1
Block 2: Binocular_Crowded,73,0.06999999999999998,left,right,0.6072887519999313,false,0
Block 2: Binocular_Crowded,74,-0.13999999999999996,left,left,0.830389207999815,correct,1
Block 2: Binocular_Crowded,75,0.07999999999999997,right,right,0.5967991669999719,correct,1
Block 2: Binocular_Crowded,76,0.07999999999999997,right,right,0.931377665999662,correct,1
Block 2: Binocular_Crowded,77,-0.13999999999999996,left,left,0.5476064479998968,correct,1
Block 2: Binocular_Crowded,78,-0.12999999999999995,left,left,0.5568632459999208,correct,1
Block 2: Binocular_Crowded,79,0.06999999999999998,right,right,0.8100292740000441,correct,1
Block 2: Binocular_Crowded,80,-0.12999999999999995,left,left,0.6171286170001622,correct,1
Block 2: Binocular_Crowded,81,-0.11999999999999995,left,left,0.5667706529998213,correct,1
Block 2: Binocular_Crowded,82,-0.11999999999999995,left,left,0.5669037600000593,correct,1
Block 2: Binocular_Crowded,83,-0.10999999999999996,left,left,0.5563380309999957,correct,1
Block 2: Binocular_Crowded,84,0.06999999999999998,right,right,0.4861940370001321,correct,1
Block 2: Binocular_Crowded,85,-0.10999999999999996,left,left,0.4859814310002548,correct,1
Block 2: Binocular_Crowded,86,-0.09999999999999996,left,left,0.5866601120001178,correct,1
Block 2: Binocular_Crowded,87,-0.09999999999999996,left,left,0.5567192879998402,correct,1
Block 2: Binocular_Crowded,88,-0.08999999999999997,left,left,0.5666536619996805,correct,1
Block 2: Binocular_Crowded,89,0.05999999999999998,right,right,0.5056311210000786,correct,1
Block 2: Binocular_Crowded,90,0.05999999999999998,right,right,0.6373913219999849,correct,1
Block 2: Binocular_Crowded,91,0.049999999999999975,right,right,0.5669058220000807,correct,1
Block 2: Binocular_Crowded,92,-0.08999999999999997,left,left,0.41476189300010446,correct,1
Block 2: Binocular_Crowded,93,-0.07999999999999997,left,left,0.5866702969997277,correct,1
Block 2: Binocular_Crowded,94,0.049999999999999975,right,right,0.4654177200000049,correct,1
Block 2: Binocular_Crowded,95,-0.07999999999999997,left,left,0.931199690000085,correct,1
Block 2: Binocular_Crowded,96,0.03999999999999997,right,right,0.4551645980000103,correct,1
Block 2: Binocular_Crowded,97,-0.06999999999999998,left,left,0.4451499199999489,correct,1
Block 2: Binocular_Crowded,98,-0.06999999999999998,left,left,0.6171452819999104,correct,1
Block 2: Binocular_Crowded,99,-0.05999999999999998,left,left,0.809600428000067,correct,1
Block 2: Binocular_Crowded,100,0.03999999999999997,right,right,0.49534816799996406,correct,1
Block 2: Binocular_Crowded,101,0.02999999999999997,right,right,0.860565453000163,correct,1
Block 2: Binocular_Crowded,102,-0.05999999999999998,left,left,0.49605977200008056,correct,1
Block 2: Binocular_Crowded,103,-0.049999999999999975,left,left,0.5566655820002779,correct,1
Block 2: Binocular_Crowded,104,0.02999999999999997,right,right,0.9213165060000392,correct,1
Block 2: Binocular_Crowded,105,-0.049999999999999975,left,left,0.49554736900017815,correct,1
Block 2: Binocular_Crowded,106,-0.03999999999999997,left,left,0.6379964370003108,correct,1
Block 2: Binocular_Crowded,107,-0.03999999999999997,left,left,0.6169640429998253,correct,1
Block 2: Binocular_Crowded,108,0.01999999999999997,right,right,0.576612022000063,correct,1
Block 2: Binocular_Crowded,109,0.01999999999999997,right,right,0.9834769700000834,correct,1
Block 2: Binocular_Crowded,110,-0.02999999999999997,left,left,0.45563033700000233,correct,1
Block 2: Binocular_Crowded,111,0.009999999999999969,left,right,0.5055515930002912,false,0
Block 2: Binocular_Crowded,112,-0.02999999999999997,left,left,0.5372880459999578,correct,1
Block 2: Binocular_Crowded,113,-0.01999999999999997,left,left,1.8122823179996885,correct,1
Block 2: Binocular_Crowded,114,0.01999999999999997,right,right,0.7188470680002865,correct,1
Block 2: Binocular_Crowded,115,-0.01999999999999997,left,left,1.3570679189997463,correct,1
Block 2: Binocular_Crowded,116,0.01999999999999997,left,right,0.6273544859996036,false,0
Block 2: Binocular_Crowded,117,0.02999999999999997,left,right,0.9113227679999909,false,0
Block 2: Binocular_Crowded,118,0.03999999999999997,left,right,1.1740309739998338,false,0
Block 2: Binocular_Crowded,119,0.049999999999999975,right,right,1.4580395360003422,correct,1
Block 3: Monocular_Standard,0,0.2,right,right,0.4853168969998478,correct,1
Block 3: Monocular_Standard,1,0.2,right,right,0.4056131029997232,correct,1
Block 3: Monocular_Standard,2,0.19,right,right,0.3638138709998202,correct,1
Block 3: Monocular_Standard,3,-0.2,left,left,0.35405259700019087,correct,1
Block 3: Monocular_Standard,4,-0.2,left,left,0.34368354999969597,correct,1
Block 3: Monocular_Standard,5,-0.19,left,left,0.33360467200009225,correct,1
Block 3: Monocular_Standard,6,-0.19,left,left,16.706252030000087,correct,1
Block 3: Monocular_Standard,7,-0.18,left,left,0.35386122200043246,correct,1
Block 3: Monocular_Standard,8,-0.18,left,left,0.3946869850001349,correct,1
Block 3: Monocular_Standard,9,-0.16999999999999998,left,left,1.4275881919998028,correct,1
Block 3: Monocular_Standard,10,0.19,right,right,0.536481246999756,correct,1
Block 3: Monocular_Standard,11,0.18,right,right,0.24240922500030138,correct,1
Block 3: Monocular_Standard,12,-0.16999999999999998,left,left,0.5162024169999313,correct,1
Block 3: Monocular_Standard,13,0.18,right,right,0.34363324100013415,correct,1
Block 3: Monocular_Standard,14,0.16999999999999998,right,right,0.37471671499997683,correct,1
Block 3: Monocular_Standard,15,0.16999999999999998,right,right,0.2946880599997712,correct,1
Block 3: Monocular_Standard,16,-0.15999999999999998,left,left,0.363981536999745,correct,1
Block 3: Monocular_Standard,17,0.15999999999999998,right,right,0.30331245000024865,correct,1
Block 3: Monocular_Standard,18,0.15999999999999998,right,right,0.2626923100001477,correct,1
Block 3: Monocular_Standard,19,-0.15999999999999998,left,left,0.31349402400019244,correct,1
Block 3: Monocular_Standard,20,0.14999999999999997,right,right,0.2630209769999965,correct,1
Block 3: Monocular_Standard,21,0.14999999999999997,right,right,0.23247159199991074,correct,1
Block 3: Monocular_Standard,22,0.13999999999999996,right,right,0.2839028859998507,correct,1
Block 3: Monocular_Standard,23,0.13999999999999996,right,right,0.2528885970000374,correct,1
Block 3: Monocular_Standard,24,-0.14999999999999997,left,left,0.22256570099989403,correct,1
Block 3: Monocular_Standard,25,0.12999999999999995,right,right,0.3642158500001642,correct,1
Block 3: Monocular_Standard,26,-0.14999999999999997,left,left,0.32361607999973785,correct,1
Block 3: Monocular_Standard,27,-0.13999999999999996,left,left,0.28282585499982815,correct,1
Block 3: Monocular_Standard,28,0.12999999999999995,right,right,0.262714072000108,correct,1
Block 3: Monocular_Standard,29,-0.13999999999999996,left,left,0.28335371899993333,correct,1
Block 3: Monocular_Standard,30,-0.12999999999999995,left,left,0.3135252670003865,correct,1
Block 3: Monocular_Standard,31,-0.12999999999999995,left,left,0.2527692419998857,correct,1
Block 3: Monocular_Standard,32,0.11999999999999995,right,right,0.2221487659999184,correct,1
Block 3: Monocular_Standard,33,0.11999999999999995,right,right,0.22252571500030172,correct,1
Block 3: Monocular_Standard,34,0.10999999999999996,right,right,0.354470585999934,correct,1
Block 3: Monocular_Standard,35,-0.11999999999999995,left,left,0.556261455999902,correct,1
Block 3: Monocular_Standard,36,-0.11999999999999995,left,left,0.7990754459997333,correct,1
Block 3: Monocular_Standard,37,-0.10999999999999996,left,left,0.4454209450000235,correct,1
Block 3: Monocular_Standard,38,0.10999999999999996,right,right,0.39463267099972654,correct,1
Block 3: Monocular_Standard,39,-0.10999999999999996,left,left,0.4450736180001513,correct,1
Block 3: Monocular_Standard,40,0.09999999999999996,right,right,0.27319455399992876,correct,1
Block 3: Monocular_Standard,41,0.09999999999999996,right,right,0.34375772900011725,correct,1
Block 3: Monocular_Standard,42,-0.09999999999999996,left,left,0.40459899899997254,correct,1
Block 3: Monocular_Standard,43,-0.09999999999999996,left,left,0.38463426399994205,correct,1
Block 3: Monocular_Standard,44,-0.08999999999999997,left,left,0.4142631899999287,correct,1
Block 3: Monocular_Standard,45,0.08999999999999997,right,right,0.33361005799997656,correct,1
Block 3: Monocular_Standard,46,0.08999999999999997,right,right,0.2628518480000821,correct,1
Block 3: Monocular_Standard,47,-0.08999999999999997,left,left,0.43523459299967726,correct,1
Block 3: Monocular_Standard,48,-0.07999999999999997,left,left,0.6578424819999782,correct,1
Block 3: Monocular_Standard,49,0.07999999999999997,right,right,0.42609413500031224,correct,1
Block 3: Monocular_Standard,50,-0.07999999999999997,left,left,0.8610457009999664,correct,1
Block 3: Monocular_Standard,51,0.07999999999999997,right,right,0.4045816869997907,correct,1
Block 3: Monocular_Standard,52,0.06999999999999998,right,right,0.43551500900002793,correct,1
Block 3: Monocular_Standard,53,-0.06999999999999998,left,left,0.4450483139999051,correct,1
Block 3: Monocular_Standard,54,-0.06999999999999998,left,left,0.404720738999913,correct,1
Block 3: Monocular_Standard,55,-0.05999999999999998,left,left,0.546092384000076,correct,1
Block 3: Monocular_Standard,56,0.06999999999999998,right,right,0.39465170499988744,correct,1
Block 3: Monocular_Standard,57,0.05999999999999998,right,right,0.48567948500021885,correct,1
Block 3: Monocular_Standard,58,-0.05999999999999998,left,left,0.42495338400021865,correct,1
Block 3: Monocular_Standard,59,-0.049999999999999975,left,left,0.6682776520001426,correct,1
Block 3: Monocular_Standard,60,-0.049999999999999975,left,left,0.7690767560002314,correct,1
Block 3: Monocular_Standard,61,0.05999999999999998,right,right,0.44520589300009306,correct,1
Block 3: Monocular_Standard,62,0.049999999999999975,right,right,0.39557382200018765,correct,1
Block 3: Monocular_Standard,63,0.049999999999999975,right,right,0.43491759499966065,correct,1
Block 3: Monocular_Standard,64,-0.03999999999999997,left,left,0.3843634800000473,correct,1
Block 3: Monocular_Standard,65,-0.03999999999999997,left,left,0.5872036529999605,correct,1
Block 3: Monocular_Standard,66,-0.02999999999999997,left,left,0.9717245740002909,correct,1
Block 3: Monocular_Standard,67,0.03999999999999997,right,right,0.44525175699982356,correct,1
Block 3: Monocular_Standard,68,0.03999999999999997,right,right,0.4046667329998854,correct,1
Block 3: Monocular_Standard,69,0.02999999999999997,right,right,0.5160404349999226,correct,1
Block 3: Monocular_Standard,70,0.02999999999999997,right,right,0.7084772680000242,correct,1
Block 3: Monocular_Standard,71,0.01999999999999997,right,right,0.6372725950000131,correct,1
Block 3: Monocular_Standard,72,0.01999999999999997,right,right,0.7287784000000102,correct,1
Block 3: Monocular_Standard,73,0.009999999999999969,right,right,0.67804385799991,correct,1
Block 3: Monocular_Standard,74,0.009999999999999969,right,right,0.789802717999919,correct,1
Block 3: Monocular_Standard,75,-3.122502256758253e-17,right,right,0.6579534009997587,correct,1
Block 3: Monocular_Standard,76,-0.02999999999999997,right,left,1.7920833349999157,false,0
Block 3: Monocular_Standard,77,-0.03999999999999997,right,left,1.296177890999843,false,0
Block 3: Monocular_Standard,78,-3.122502256758253e-17,right,right,0.8707234829998924,correct,1
Block 3: Monocular_Standard,79,-0.010000000000000031,right,right,0.4959824059997118,correct,1
Block 3: Monocular_Standard,80,-0.049999999999999975,left,left,0.6071953679997932,correct,1
Block 3: Monocular_Standard,81,-0.049999999999999975,left,left,0.7382630869997229,correct,1
Block 3: Monocular_Standard,82,-0.010000000000000031,right,right,1.5901722610001343,correct,1
Block 3: Monocular_Standard,83,-0.03999999999999997,left,left,0.688433380999868,correct,1
Block 3: Monocular_Standard,84,-0.02000000000000003,right,right,0.5976948880002055,correct,1
Block 3: Monocular_Standard,85,-0.02000000000000003,left,right,1.0231670660000418,false,0
Block 3: Monocular_Standard,86,-0.03999999999999997,left,left,1.4475939829999334,correct,1
Block 3: Monocular_Standard,87,-0.010000000000000031,left,right,1.9738351259998126,false,0
Block 3: Monocular_Standard,88,-0.02999999999999997,left,left,0.9012596099996699,correct,1
Block 3: Monocular_Standard,89,-0.02999999999999997,right,left,0.9830522289998953,false,0
Block 3: Monocular_Standard,90,-3.122502256758253e-17,right,right,1.235498744999859,correct,1
Block 3: Monocular_Standard,91,-0.03999999999999997,left,left,0.6989649629999803,correct,1
Block 3: Monocular_Standard,92,-3.122502256758253e-17,left,right,1.043355454000448,false,0
Block 3: Monocular_Standard,93,0.009999999999999969,left,right,1.3566952740002307,false,0
Block 3: Monocular_Standard,94,-0.03999999999999997,left,left,0.6178984210000635,correct,1
Block 3: Monocular_Standard,95,-0.02999999999999997,left,left,1.0330353129998002,correct,1
Block 3: Monocular_Standard,96,-0.02999999999999997,left,left,1.0534728580000774,correct,1
Block 3: Monocular_Standard,97,-0.01999999999999997,right,left,0.6577373119998811,false,0
Block 3: Monocular_Standard,98,-0.02999999999999997,left,left,1.5288319490000504,correct,1
Block 3: Monocular_Standard,99,-0.02999999999999997,left,left,3.677855926999655,correct,1
Block 3: Monocular_Standard,100,-0.01999999999999997,left,left,1.4579528760000358,correct,1
Block 3: Monocular_Standard,101,0.01999999999999997,right,right,0.9207919000000402,correct,1
Block 3: Monocular_Standard,102,-0.01999999999999997,right,left,0.8810212299999876,false,0
Block 3: Monocular_Standard,103,0.01999999999999997,left,right,1.0931206010000096,false,0
Block 3: Monocular_Standard,104,0.02999999999999997,left,right,1.0836928270000499,false,0
Block 3: Monocular_Standard,105,-0.02999999999999997,left,left,1.0625055509999584,correct,1
Block 3: Monocular_Standard,106,-0.02999999999999997,left,left,1.0832165550000354,correct,1
Block 3: Monocular_Standard,107,-0.01999999999999997,right,left,0.850047388999883,false,0
Block 3: Monocular_Standard,108,-0.02999999999999997,right,left,1.356436652999946,false,0
Block 3: Monocular_Standard,109,0.03999999999999997,right,right,1.173968997999964,correct,1
Block 3: Monocular_Standard,110,0.03999999999999997,right,right,0.8199215479999111,correct,1
Block 3: Monocular_Standard,111,-0.03999999999999997,left,left,0.9517172380001284,correct,1
Block 3: Monocular_Standard,112,0.02999999999999997,right,right,0.7086710469998252,correct,1
Block 3: Monocular_Standard,113,-0.03999999999999997,left,left,1.7817072989996632,correct,1
Block 3: Monocular_Standard,114,-0.02999999999999997,right,left,1.0839582180001344,false,0
Block 3: Monocular_Standard,115,-0.03999999999999997,left,left,0.7184095650000017,correct,1
Block 3: Monocular_Standard,116,0.02999999999999997,left,right,1.5297956770000383,false,0
Block 3: Monocular_Standard,117,0.03999999999999997,right,right,0.3844552609998573,correct,1
Block 3: Monocular_Standard,118,0.03999999999999997,right,right,0.4958068370001456,correct,1
Block 3: Monocular_Standard,119,0.02999999999999997,right,right,0.4246200279999357,correct,1
Block 4: Monocular_Crowded,0,0.2,right,right,1.1339652959995874,correct,1
Block 4: Monocular_Crowded,1,-0.2,right,left,0.6272005640003044,false,0
Block 4: Monocular_Crowded,2,0.2,right,right,0.5162603730000228,correct,1
Block 4: Monocular_Crowded,3,-0.21000000000000002,right,left,1.9555086179998398,false,0
Block 4: Monocular_Crowded,4,-0.22000000000000003,left,left,0.7501330029999735,correct,1
Block 4: Monocular_Crowded,5,-0.22000000000000003,left,left,0.42474812099999326,correct,1
Block 4: Monocular_Crowded,6,0.19,right,right,0.5463687470000878,correct,1
Block 4: Monocular_Crowded,7,0.19,right,right,0.4655164840000907,correct,1
Block 4: Monocular_Crowded,8,0.18,right,right,0.505853205999756,correct,1
Block 4: Monocular_Crowded,9,-0.21000000000000002,left,left,0.9008933599998272,correct,1
Block 4: Monocular_Crowded,10,-0.21000000000000002,left,left,0.7592176950001885,correct,1
Block 4: Monocular_Crowded,11,-0.2,left,left,1.0526323330000196,correct,1
Block 4: Monocular_Crowded,12,0.18,right,right,0.5666469840002719,correct,1
Block 4: Monocular_Crowded,13,-0.2,left,left,0.8197759180002322,correct,1
Block 4: Monocular_Crowded,14,0.16999999999999998,right,right,0.47550988400007554,correct,1
Block 4: Monocular_Crowded,15,-0.19,left,left,0.9316335839998828,correct,1
Block 4: Monocular_Crowded,16,0.16999999999999998,right,right,0.4857295339998018,correct,1
Block 4: Monocular_Crowded,17,-0.19,left,left,0.7087909659999241,correct,1
Block 4: Monocular_Crowded,18,-0.18,left,left,0.5669984959999965,correct,1
Block 4: Monocular_Crowded,19,-0.18,left,left,0.505991234999783,correct,1
Block 4: Monocular_Crowded,20,-0.16999999999999998,left,left,1.558968910999738,correct,1
Block 4: Monocular_Crowded,21,0.15999999999999998,right,right,0.47586045899970486,correct,1
Block 4: Monocular_Crowded,22,-0.16999999999999998,left,left,0.6478408389998549,correct,1
Block 4: Monocular_Crowded,23,0.15999999999999998,right,right,0.5156543489997603,correct,1
Block 4: Monocular_Crowded,24,-0.15999999999999998,left,left,0.627616339999804,correct,1
Block 4: Monocular_Crowded,25,0.14999999999999997,right,right,0.5770092850002584,correct,1
Block 4: Monocular_Crowded,26,-0.15999999999999998,left,left,0.699386986999798,correct,1
Block 4: Monocular_Crowded,27,0.14999999999999997,right,right,0.4350002480000512,correct,1
Block 4: Monocular_Crowded,28,0.13999999999999996,right,right,0.6475388069998189,correct,1
Block 4: Monocular_Crowded,29,0.13999999999999996,right,right,0.47559480800009624,correct,1
Block 4: Monocular_Crowded,30,0.12999999999999995,right,right,0.5161778080000659,correct,1
Block 4: Monocular_Crowded,31,-0.14999999999999997,left,left,0.6476981099999648,correct,1
Block 4: Monocular_Crowded,32,-0.14999999999999997,left,left,0.5667320829998062,correct,1
Block 4: Monocular_Crowded,33,0.12999999999999995,right,right,0.4459377369998947,correct,1
Block 4: Monocular_Crowded,34,-0.13999999999999996,right,left,0.6878243549999752,false,0
Block 4: Monocular_Crowded,35,-0.14999999999999997,left,left,0.576689971000178,correct,1
Block 4: Monocular_Crowded,36,0.11999999999999995,right,right,0.49565681900003256,correct,1
Block 4: Monocular_Crowded,37,0.11999999999999995,left,right,1.7420412159999614,false,0
Block 4: Monocular_Crowded,38,0.12999999999999995,right,right,0.5361196600001676,correct,1
Block 4: Monocular_Crowded,39,-0.14999999999999997,left,left,0.5565135540000483,correct,1
Block 4: Monocular_Crowded,40,0.12999999999999995,right,right,0.4651158699998632,correct,1
Block 4: Monocular_Crowded,41,0.11999999999999995,right,right,0.4960228479999387,correct,1
Block 4: Monocular_Crowded,42,0.11999999999999995,right,right,0.5466298110000025,correct,1
Block 4: Monocular_Crowded,43,-0.13999999999999996,left,left,0.6174560999997993,correct,1
Block 4: Monocular_Crowded,44,-0.13999999999999996,left,left,0.48571365199995853,correct,1
Block 4: Monocular_Crowded,45,0.10999999999999996,right,right,0.4149206330002926,correct,1
Block 4: Monocular_Crowded,46,0.10999999999999996,right,right,0.5973337479999827,correct,1
Block 4: Monocular_Crowded,47,0.09999999999999996,right,right,0.5874134929999855,correct,1
Block 4: Monocular_Crowded,48,-0.12999999999999995,left,left,0.47548735100008344,correct,1
Block 4: Monocular_Crowded,49,0.09999999999999996,right,right,0.6577772089999598,correct,1
Block 4: Monocular_Crowded,50,-0.12999999999999995,left,left,1.0636436209997555,correct,1
Block 4: Monocular_Crowded,51,0.08999999999999997,right,right,0.36445633700031976,correct,1
Block 4: Monocular_Crowded,52,0.08999999999999997,right,right,0.5561724479998702,correct,1
Block 4: Monocular_Crowded,53,-0.11999999999999995,left,left,0.5564355850001448,correct,1
Block 4: Monocular_Crowded,54,0.07999999999999997,left,right,1.1441291790001742,false,0
Block 4: Monocular_Crowded,55,-0.11999999999999995,left,left,0.5262648309999349,correct,1
Block 4: Monocular_Crowded,56,-0.10999999999999996,left,left,0.7088556480002808,correct,1
Block 4: Monocular_Crowded,57,0.08999999999999997,right,right,0.9921531160002814,correct,1
Block 4: Monocular_Crowded,58,-0.10999999999999996,left,left,0.698890284999834,correct,1
Block 4: Monocular_Crowded,59,-0.09999999999999996,left,left,0.9415534989998378,correct,1
Block 4: Monocular_Crowded,60,-0.09999999999999996,right,left,0.9214432560002024,false,0
Block 4: Monocular_Crowded,61,0.08999999999999997,right,right,2.1276016389997494,correct,1
Block 4: Monocular_Crowded,62,0.07999999999999997,right,right,0.7900273720001678,correct,1
Block 4: Monocular_Crowded,63,0.07999999999999997,right,right,0.7694100749999961,correct,1
Block 4: Monocular_Crowded,64,0.06999999999999998,right,right,0.6071318700001029,correct,1
Block 4: Monocular_Crowded,65,0.06999999999999998,right,right,0.8708803459999217,correct,1
Block 4: Monocular_Crowded,66,-0.10999999999999996,left,left,0.6275356080000165,correct,1
Block 4: Monocular_Crowded,67,0.05999999999999998,left,right,0.7796493810001266,false,0
Block 4: Monocular_Crowded,68,0.06999999999999998,left,right,2.865773223999895,false,0
Block 4: Monocular_Crowded,69,0.07999999999999997,right,right,0.6583003890000327,correct,1
Block 4: Monocular_Crowded,70,-0.10999999999999996,left,left,0.708707078000316,correct,1
Block 4: Monocular_Crowded,71,-0.09999999999999996,left,left,0.6172120800001721,correct,1
Block 4: Monocular_Crowded,72,-0.09999999999999996,left,left,0.7190177319998838,correct,1
Block 4: Monocular_Crowded,73,-0.08999999999999997,right,left,0.912209325999811,false,0
Block 4: Monocular_Crowded,74,0.07999999999999997,right,right,0.769090075999884,correct,1
Block 4: Monocular_Crowded,75,0.06999999999999998,right,right,0.9109731809999175,correct,1
Block 4: Monocular_Crowded,76,0.06999999999999998,left,right,2.673659649000001,false,0
Block 4: Monocular_Crowded,77,-0.09999999999999996,left,left,0.5362864989997433,correct,1
Block 4: Monocular_Crowded,78,0.07999999999999997,right,right,0.6375101290000202,correct,1
Block 4: Monocular_Crowded,79,-0.09999999999999996,left,left,0.6983179480002946,correct,1
Block 4: Monocular_Crowded,80,-0.08999999999999997,right,left,2.673506277999877,false,0
Block 4: Monocular_Crowded,81,0.07999999999999997,right,right,2.622054599999956,correct,1
Block 4: Monocular_Crowded,82,-0.09999999999999996,right,left,2.238547534999725,false,0
Block 4: Monocular_Crowded,83,0.06999999999999998,right,right,0.6478285670000332,correct,1
Block 4: Monocular_Crowded,84,-0.10999999999999996,left,left,0.6069879359997685,correct,1
Block 4: Monocular_Crowded,85,-0.10999999999999996,left,left,0.5768325560002268,correct,1
Block 4: Monocular_Crowded,86,0.06999999999999998,right,right,0.5865514070001154,correct,1
Block 4: Monocular_Crowded,87,0.05999999999999998,right,right,0.6479289140002038,correct,1
Block 4: Monocular_Crowded,88,0.05999999999999998,right,right,0.577289472999837,correct,1
Block 4: Monocular_Crowded,89,0.049999999999999975,right,right,0.6778075940001145,correct,1
Block 4: Monocular_Crowded,90,0.049999999999999975,right,right,0.6480400820000796,correct,1
Block 4: Monocular_Crowded,91,-0.09999999999999996,left,left,0.5060439159997259,correct,1
Block 4: Monocular_Crowded,92,0.03999999999999997,right,right,0.7694427569999789,correct,1
Block 4: Monocular_Crowded,93,-0.09999999999999996,left,left,0.657608505999633,correct,1
Block 4: Monocular_Crowded,94,0.03999999999999997,right,right,0.4857862950002527,correct,1
Block 4: Monocular_Crowded,95,-0.08999999999999997,right,left,0.578019377000146,false,0
Block 4: Monocular_Crowded,96,-0.09999999999999996,right,left,0.8202759040000274,false,0
Block 4: Monocular_Crowded,97,-0.10999999999999996,left,left,0.6780913890002012,correct,1
Block 4: Monocular_Crowded,98,-0.10999999999999996,left,left,0.8716372919998321,correct,1
Block 4: Monocular_Crowded,99,-0.09999999999999996,left,left,0.748915852999744,correct,1
Block 4: Monocular_Crowded,100,0.02999999999999997,left,right,1.5998135640002147,false,0
Block 4: Monocular_Crowded,101,-0.09999999999999996,left,left,0.6880861199997526,correct,1
Block 4: Monocular_Crowded,102,-0.08999999999999997,right,left,0.64782612099998,false,0
Block 4: Monocular_Crowded,103,0.03999999999999997,right,right,0.18197998599998755,correct,1
Block 4: Monocular_Crowded,104,-0.09999999999999996,left,left,0.689107452999906,correct,1
Block 4: Monocular_Crowded,105,-0.09999999999999996,left,left,0.5159205609998025,correct,1
Block 4: Monocular_Crowded,106,0.03999999999999997,left,right,1.4075656189997972,false,0
Block 4: Monocular_Crowded,107,0.049999999999999975,left,right,1.7025410579999516,false,0
Block 4: Monocular_Crowded,108,-0.08999999999999997,left,left,0.6285890430003747,correct,1
Block 4: Monocular_Crowded,109,0.05999999999999998,right,right,0.7193836470000861,correct,1
Block 4: Monocular_Crowded,110,-0.08999999999999997,left,left,0.6378783139998632,correct,1
Block 4: Monocular_Crowded,111,-0.07999999999999997,left,left,1.0638665749997926,correct,1
Block 4: Monocular_Crowded,112,0.05999999999999998,right,right,0.6476200140000401,correct,1
Block 4: Monocular_Crowded,113,0.049999999999999975,right,right,0.8208313780000935,correct,1
Block 4: Monocular_Crowded,114,0.049999999999999975,left,right,0.7694216149998283,false,0
Block 4: Monocular_Crowded,115,-0.07999999999999997,left,left,0.5567511720000766,correct,1
Block 4: Monocular_Crowded,116,-0.06999999999999998,left,left,0.6074371390000124,correct,1
Block 4: Monocular_Crowded,117,-0.06999999999999998,left,left,0.5870473250001851,correct,1
Block 4: Monocular_Crowded,118,0.05999999999999998,left,right,0.9623022569999193,false,0
Block 4: Monocular_Crowded,119,-0.05999999999999998,left,left,0.17186584799992488,correct,1
