label,trials,offset,keys,direction,response_time,accuracy,response_numeric
Block 1: Binocular_Standard,0,-0.15,left,left,0.9262314970001171,correct,1
Block 1: Binocular_Standard,1,0.15,right,right,0.4755650319993947,correct,1
Block 1: Binocular_Standard,2,0.15,right,right,0.9619843430000401,correct,1
Block 1: Binocular_Standard,3,0.13999999999999999,right,right,0.5563145729993266,correct,1
Block 1: Binocular_Standard,4,-0.15,left,left,0.6881296210003711,correct,1
Block 1: Binocular_Standard,5,0.13999999999999999,right,right,0.445236250000562,correct,1
Block 1: Binocular_Standard,6,-0.13999999999999999,left,left,0.6072386050000205,correct,1
Block 1: Binocular_Standard,7,-0.13999999999999999,left,left,0.536229067000022,correct,1
Block 1: Binocular_Standard,8,0.12999999999999998,right,right,0.586961713999699,correct,1
Block 1: Binocular_Standard,9,-0.12999999999999998,left,left,0.45559954599957564,correct,1
Block 1: Binocular_Standard,10,-0.12999999999999998,right,left,1.123704445999465,false,0
Block 1: Binocular_Standard,11,-0.13999999999999999,left,left,0.465455294000094,correct,1
Block 1: Binocular_Standard,12,0.12999999999999998,right,right,0.8402028049995351,correct,1
Block 1: Binocular_Standard,13,0.11999999999999998,right,right,0.37462893100018846,correct,1
Block 1: Binocular_Standard,14,-0.13999999999999999,left,left,0.37446428800012654,correct,1
Block 1: Binocular_Standard,15,-0.12999999999999998,left,left,0.45539045199984685,correct,1
Block 1: Binocular_Standard,16,-0.12999999999999998,left,left,0.43512303799980145,correct,1
Block 1: Binocular_Standard,17,0.11999999999999998,right,right,0.33413525200012373,correct,1
Block 1: Binocular_Standard,18,0.10999999999999999,right,right,0.4247615169997516,correct,1
Block 1: Binocular_Standard,19,0.10999999999999999,right,right,0.4958457479997378,correct,1
Block 1: Binocular_Standard,20,-0.11999999999999998,left,left,0.37447247599993716,correct,1
Block 1: Binocular_Standard,21,-0.11999999999999998,left,left,0.42492314700029965,correct,1
Block 1: Binocular_Standard,22,0.09999999999999999,right,right,0.4349294710000322,correct,1
Block 1: Binocular_Standard,23,0.09999999999999999,right,right,0.3337080920000517,correct,1
Block 1: Binocular_Standard,24,0.09,right,right,0.37447174599947175,correct,1
Block 1: Binocular_Standard,25,0.09,right,right,0.35407998000027874,correct,1
Block 1: Binocular_Standard,26,0.08,right,right,0.3743102070002351,correct,1
Block 1: Binocular_Standard,27,0.08,right,right,0.6071191849996467,correct,1
Block 1: Binocular_Standard,28,0.07,right,right,0.40502120800010744,correct,1
Block 1: Binocular_Standard,29,-0.10999999999999999,left,left,0.44627384900013567,correct,1
Block 1: Binocular_Standard,30,-0.10999999999999999,left,left,0.4553438169996298,correct,1
Block 1: Binocular_Standard,31,0.07,right,right,1.0229465439997512,correct,1
Block 1: Binocular_Standard,32,-0.09999999999999999,left,left,0.45567563899930974,correct,1
Block 1: Binocular_Standard,33,0.060000000000000005,right,right,0.537030796000181,correct,1
Block 1: Binocular_Standard,34,0.060000000000000005,right,right,0.42513624300045194,correct,1
Block 1: Binocular_Standard,35,0.05,right,right,0.5164343819997157,correct,1
Block 1: Binocular_Standard,36,0.05,right,right,0.8097475269996721,correct,1
Block 1: Binocular_Standard,37,0.04,right,right,0.5874350940002842,correct,1
Block 1: Binocular_Standard,38,0.04,right,right,0.3944981459999326,correct,1
Block 1: Binocular_Standard,39,-0.09999999999999999,left,left,0.36406644900034735,correct,1
Block 1: Binocular_Standard,40,0.03,right,right,0.5770929130003424,correct,1
Block 1: Binocular_Standard,41,-0.09,left,left,0.45599000099991827,correct,1
Block 1: Binocular_Standard,42,-0.09,left,left,0.49554920900027355,correct,1
Block 1: Binocular_Standard,43,-0.08,left,left,0.48593246000018553,correct,1
Block 1: Binocular_Standard,44,0.03,right,right,0.3941819480005506,correct,1
Block 1: Binocular_Standard,45,-0.08,left,left,0.4859368130000803,correct,1
Block 1: Binocular_Standard,46,-0.07,left,left,0.49649190600030124,correct,1
Block 1: Binocular_Standard,47,-0.07,left,left,0.6072178029999122,correct,1
Block 1: Binocular_Standard,48,0.019999999999999997,right,right,0.5057624609999039,correct,1
Block 1: Binocular_Standard,49,-0.060000000000000005,left,left,0.45539952400031325,correct,1
Block 1: Binocular_Standard,50,0.019999999999999997,right,right,0.4350300269998115,correct,1
Block 1: Binocular_Standard,51,0.009999999999999997,left,right,0.43494731900045736,false,0
Block 1: Binocular_Standard,52,0.019999999999999997,left,right,1.5286802470000111,false,0
Block 1: Binocular_Standard,53,-0.060000000000000005,left,left,0.4965288089997557,correct,1
Block 1: Binocular_Standard,54,0.03,right,right,0.48582791700027883,correct,1
Block 1: Binocular_Standard,55,-0.05,left,left,0.48588252700028534,correct,1
Block 1: Binocular_Standard,56,0.03,right,right,0.45526081600019097,correct,1
Block 1: Binocular_Standard,57,-0.05,left,left,0.4351413449994652,correct,1
Block 1: Binocular_Standard,58,-0.04,left,left,0.5263798629994199,correct,1
Block 1: Binocular_Standard,59,0.019999999999999997,right,right,0.4149220609997428,correct,1
Block 1: Binocular_Standard,60,-0.04,left,left,0.4855798560001858,correct,1
Block 1: Binocular_Standard,61,-0.03,right,left,0.45556659499925445,false,0
Block 1: Binocular_Standard,62,0.019999999999999997,right,right,0.637412000999575,correct,1
Block 1: Binocular_Standard,63,-0.04,left,left,0.44548747499993624,correct,1
Block 1: Binocular_Standard,64,0.009999999999999997,right,right,0.5472227600002952,correct,1
Block 1: Binocular_Standard,65,-0.04,left,left,0.5369807449997097,correct,1
Block 1: Binocular_Standard,66,0.009999999999999997,right,right,0.536966558000131,correct,1
Block 1: Binocular_Standard,67,-3.469446951953614e-18,left,right,0.46604163099982543,false,0
Block 1: Binocular_Standard,68,-0.03,left,left,0.5769795989999693,correct,1
Block 1: Binocular_Standard,69,0.009999999999999997,left,right,1.4379170060001343,false,0
Block 1: Binocular_Standard,70,-0.03,left,left,0.5873572820000845,correct,1
Block 1: Binocular_Standard,71,-0.019999999999999997,left,left,0.7691152209999927,correct,1
Block 1: Binocular_Standard,72,-0.019999999999999997,right,left,0.8101393429997188,false,0
Block 1: Binocular_Standard,73,0.019999999999999997,left,right,0.6076713040001778,false,0
Block 1: Binocular_Standard,74,-0.03,left,left,0.4559802559997479,correct,1
Block 1: Binocular_Standard,75,-0.03,left,left,1.3483215169999312,correct,1
Block 1: Binocular_Standard,76,0.03,right,right,0.5463819800006604,correct,1
Block 1: Binocular_Standard,77,0.03,right,right,0.5159804810000423,correct,1
Block 1: Binocular_Standard,78,0.019999999999999997,right,right,0.8807575549999456,correct,1
Block 1: Binocular_Standard,79,0.019999999999999997,right,right,0.5667810180002562,correct,1
Block 1: Binocular_Standard,80,-0.019999999999999997,right,left,1.4069463659998291,false,0
Block 1: Binocular_Standard,81,0.009999999999999997,right,right,0.4859126209994429,correct,1
Block 1: Binocular_Standard,82,-0.03,left,left,0.5060999340003036,correct,1
Block 1: Binocular_Standard,83,-0.03,right,left,0.637837063999541,false,0
Block 1: Binocular_Standard,84,0.009999999999999997,right,right,0.53655119799987,correct,1
Block 1: Binocular_Standard,85,-3.469446951953614e-18,left,right,0.4761084960000517,false,0
Block 1: Binocular_Standard,86,-0.04,left,left,0.7491709799996897,correct,1
Block 1: Binocular_Standard,87,0.009999999999999997,right,right,0.6783009720002156,correct,1
Block 1: Binocular_Standard,88,-0.04,left,left,0.5264984830000685,correct,1
Block 1: Binocular_Standard,89,0.009999999999999997,right,right,0.7191662300001553,correct,1
Block 1: Binocular_Standard,90,-3.469446951953614e-18,right,right,1.4483921329992882,correct,1
Block 1: Binocular_Standard,91,-0.03,left,left,0.4653548629994475,correct,1
Block 1: Binocular_Standard,92,-3.469446951953614e-18,left,right,1.0332515529999,false,0
Block 1: Binocular_Standard,93,-0.03,left,left,0.5668496649996086,correct,1
Block 1: Binocular_Standard,94,0.009999999999999997,right,right,0.7295119520003936,correct,1
Block 1: Binocular_Standard,95,-0.019999999999999997,right,left,0.6787433950003106,false,0
Block 1: Binocular_Standard,96,-0.03,left,left,0.4759455240000534,correct,1
Block 1: Binocular_Standard,97,-0.03,left,left,0.4860468100005164,correct,1
Block 1: Binocular_Standard,98,-0.019999999999999997,right,left,0.8406516969998847,false,0
Block 1: Binocular_Standard,99,0.009999999999999997,right,right,0.8706797129998449,correct,1
Block 1: Binocular_Standard,100,-0.03,left,left,0.4449537139998938,correct,1
Block 1: Binocular_Standard,101,-3.469446951953614e-18,left,right,0.9723907480001799,false,0
Block 1: Binocular_Standard,102,-0.03,left,left,0.5364625649999653,correct,1
Block 1: Binocular_Standard,103,0.009999999999999997,right,right,0.6380048840001109,correct,1
Block 1: Binocular_Standard,104,-0.019999999999999997,left,left,0.49600953699973616,correct,1
Block 1: Binocular_Standard,105,0.009999999999999997,right,right,0.7593976620000831,correct,1
Block 1: Binocular_Standard,106,-0.019999999999999997,left,left,0.5874648610006261,correct,1
Block 1: Binocular_Standard,107,-0.009999999999999997,right,left,0.5975587190005172,false,0
Block 1: Binocular_Standard,108,-0.019999999999999997,right,left,0.6186076080002749,false,0
Block 1: Binocular_Standard,109,-0.03,left,left,0.43591409099917655,correct,1
Block 1: Binocular_Standard,110,-3.469446951953614e-18,left,right,0.6684242569999697,false,0
Block 1: Binocular_Standard,111,0.009999999999999997,right,right,0.48561102299936465,correct,1
Block 1: Binocular_Standard,112,-0.03,left,left,0.5465633629992226,correct,1
Block 1: Binocular_Standard,113,-0.019999999999999997,right,left,0.6068124859993986,false,0
Block 1: Binocular_Standard,114,0.009999999999999997,right,right,0.6275786890000745,correct,1
Block 1: Binocular_Standard,115,-0.03,left,left,0.5264939239996238,correct,1
Block 1: Binocular_Standard,116,-3.469446951953614e-18,right,right,0.6783282800006418,correct,1
Block 1: Binocular_Standard,117,-3.469446951953614e-18,right,right,0.668261746999633,correct,1
Block 1: Binocular_Standard,118,-0.010000000000000004,left,right,1.2150797890008107,false,0
Block 1: Binocular_Standard,119,-0.03,left,left,0.5971566420003,correct,1
Block 1: Binocular_Standard,120,-0.019999999999999997,left,left,0.5464784320001854,correct,1
Block 1: Binocular_Standard,121,-0.019999999999999997,left,left,0.567347224000514,correct,1
Block 1: Binocular_Standard,122,-3.469446951953614e-18,left,right,0.6072218279996378,false,0
Block 1: Binocular_Standard,123,-0.009999999999999997,right,left,0.38546860799942806,false,0
Block 1: Binocular_Standard,124,-0.019999999999999997,left,left,0.6381316580000203,correct,1
Block 1: Binocular_Standard,125,0.009999999999999997,left,right,0.606957374000558,false,0
Block 1: Binocular_Standard,126,-0.019999999999999997,left,left,1.2051489969999238,correct,1
Block 1: Binocular_Standard,127,0.019999999999999997,right,right,0.8103472279999551,correct,1
Block 1: Binocular_Standard,128,-0.009999999999999997,left,left,0.7189540230001512,correct,1
Block 1: Binocular_Standard,129,-0.009999999999999997,left,left,0.9107206930002576,correct,1
Block 1: Binocular_Standard,130,3.469446951953614e-18,right,left,0.5971669659993495,false,0
Block 1: Binocular_Standard,131,-0.009999999999999997,left,left,0.5263692480002646,correct,1
Block 1: Binocular_Standard,132,-0.009999999999999997,left,left,0.5770650780004871,correct,1
Block 1: Binocular_Standard,133,3.469446951953614e-18,right,left,0.5873908430003212,false,0
Block 1: Binocular_Standard,134,0.019999999999999997,right,right,0.647965956999542,correct,1
Block 1: Binocular_Standard,135,-0.009999999999999997,right,left,0.7795897519999926,false,0
Block 1: Binocular_Standard,136,-0.019999999999999997,left,left,0.25284847999955673,correct,1
Block 1: Binocular_Standard,137,0.009999999999999997,right,right,1.0124479309997696,correct,1
Block 1: Binocular_Standard,138,0.009999999999999997,right,right,0.6982174590002614,correct,1
Block 1: Binocular_Standard,139,-0.019999999999999997,right,left,0.4348879320004926,false,0
Block 1: Binocular_Standard,140,-3.469446951953614e-18,left,right,0.8102739240002848,false,0
Block 1: Binocular_Standard,141,0.009999999999999997,right,right,0.7392546430000948,correct,1
Block 1: Binocular_Standard,142,-0.03,left,left,0.6579796349997196,correct,1
Block 1: Binocular_Standard,143,-0.03,left,left,0.7794841490003819,correct,1
Block 1: Binocular_Standard,144,-0.019999999999999997,left,left,0.5572645980000743,correct,1
Block 1: Binocular_Standard,145,-0.019999999999999997,left,left,0.4760622229996443,correct,1
Block 1: Binocular_Standard,146,0.009999999999999997,right,right,1.8946435739999288,correct,1
Block 1: Binocular_Standard,147,-3.469446951953614e-18,right,right,0.6475150119995305,correct,1
Block 1: Binocular_Standard,148,-0.009999999999999997,right,left,0.9317605449996336,false,0
Block 1: Binocular_Standard,149,-3.469446951953614e-18,left,right,0.44525112100018305,false,0
Block 1: Binocular_Standard,150,-0.019999999999999997,right,left,0.6376344209993476,false,0
Block 1: Binocular_Standard,151,-0.03,right,left,0.6180260760002056,false,0
Block 1: Binocular_Standard,152,0.009999999999999997,left,right,0.22234777100038627,false,0
Block 1: Binocular_Standard,153,0.019999999999999997,right,right,0.8102151819994106,correct,1
Block 1: Binocular_Standard,154,0.019999999999999997,right,right,0.6580492779994529,correct,1
Block 1: Binocular_Standard,155,0.009999999999999997,right,right,0.6886303259998385,correct,1
Block 1: Binocular_Standard,156,0.009999999999999997,right,right,0.7486718210002437,correct,1
Block 1: Binocular_Standard,157,-0.04,right,left,0.8705796160002137,false,0
Block 1: Binocular_Standard,158,-0.05,left,left,0.6378599889994803,correct,1
Block 1: Binocular_Standard,159,-3.469446951953614e-18,right,right,1.012483303999943,correct,1
Block 1: Binocular_Standard,160,-0.05,left,left,0.48592270400058624,correct,1
Block 1: Binocular_Standard,161,-3.469446951953614e-18,right,right,0.7895247520000339,correct,1
Block 1: Binocular_Standard,162,-0.010000000000000004,right,right,0.42505093999989185,correct,1
Block 1: Binocular_Standard,163,-0.04,left,left,0.8911237499996787,correct,1
Block 1: Binocular_Standard,164,-0.010000000000000004,left,right,0.5466260279999915,false,0
Block 1: Binocular_Standard,165,-3.469446951953614e-18,right,right,0.536663201999545,correct,1
Block 1: Binocular_Standard,166,-3.469446951953614e-18,right,right,0.657951592000245,correct,1
Block 1: Binocular_Standard,167,-0.010000000000000004,right,right,0.840532813000209,correct,1
Block 1: Binocular_Standard,168,-0.04,left,left,0.8709232119999797,correct,1
Block 1: Binocular_Standard,169,-0.010000000000000004,right,right,0.5361792040002911,correct,1
Block 2: Binocular_Crowded,0,-0.15,left,left,0.8705965420003849,correct,1
Block 2: Binocular_Crowded,1,-0.15,left,left,1.792782188000274,correct,1
Block 2: Binocular_Crowded,2,-0.13999999999999999,right,left,0.46547849800026597,false,0
Block 2: Binocular_Crowded,3,-0.15,right,left,0.7085772169994016,false,0
Block 2: Binocular_Crowded,4,0.15,right,right,0.7590950160001739,correct,1
Block 2: Binocular_Crowded,5,-0.16,right,left,0.9118121659994358,false,0
Block 2: Binocular_Crowded,6,-0.17,left,left,0.5773524719998022,correct,1
Block 2: Binocular_Crowded,7,0.15,right,right,0.5466645950000384,correct,1
Block 2: Binocular_Crowded,8,0.13999999999999999,right,right,0.627348985000026,correct,1
Block 2: Binocular_Crowded,9,0.13999999999999999,right,right,0.5260872210001253,correct,1
Block 2: Binocular_Crowded,10,-0.17,left,left,1.15352274199995,correct,1
Block 2: Binocular_Crowded,11,0.12999999999999998,right,right,0.5367619210001067,correct,1
Block 2: Binocular_Crowded,12,-0.16,left,left,0.5869765560000815,correct,1
Block 2: Binocular_Crowded,13,-0.16,right,left,1.6203486920003343,false,0
Block 2: Binocular_Crowded,14,-0.17,right,left,0.45567240299988043,false,0
Block 2: Binocular_Crowded,15,-0.18000000000000002,left,left,0.5667009660000986,correct,1
Block 2: Binocular_Crowded,16,0.12999999999999998,right,right,0.6782888690004256,correct,1
Block 2: Binocular_Crowded,17,0.11999999999999998,right,right,0.5266029889999118,correct,1
Block 2: Binocular_Crowded,18,0.11999999999999998,right,right,0.6986664120004207,correct,1
Block 2: Binocular_Crowded,19,0.10999999999999999,right,right,0.5060103830001026,correct,1
Block 2: Binocular_Crowded,20,-0.18000000000000002,left,left,0.7389519670005029,correct,1
Block 2: Binocular_Crowded,21,0.10999999999999999,right,right,0.9214703469997403,correct,1
Block 2: Binocular_Crowded,22,0.09999999999999999,right,right,0.6176194760000726,correct,1
Block 2: Binocular_Crowded,23,0.09999999999999999,right,right,0.5668545440003072,correct,1
Block 2: Binocular_Crowded,24,0.09,right,right,0.7284982069995749,correct,1
Block 2: Binocular_Crowded,25,-0.17,left,left,0.6981219240005885,correct,1
Block 2: Binocular_Crowded,26,0.09,right,right,0.5779250739997224,correct,1
Block 2: Binocular_Crowded,27,-0.17,left,left,0.6379194149994873,correct,1
Block 2: Binocular_Crowded,28,-0.16,left,left,0.7998998019993451,correct,1
Block 2: Binocular_Crowded,29,0.08,right,right,0.6986316340007761,correct,1
Block 2: Binocular_Crowded,30,-0.16,left,left,0.9316271329989831,correct,1
Block 2: Binocular_Crowded,31,-0.15,left,left,0.6683796319994144,correct,1
Block 2: Binocular_Crowded,32,-0.15,left,left,0.8202282519996515,correct,1
Block 2: Binocular_Crowded,33,0.08,right,right,1.0940317449985741,correct,1
Block 2: Binocular_Crowded,34,0.07,right,right,1.620199032000528,correct,1
Block 2: Binocular_Crowded,35,0.07,left,right,1.042749737000122,false,0
Block 2: Binocular_Crowded,36,-0.13999999999999999,left,left,0.7688551679984812,correct,1
Block 2: Binocular_Crowded,37,0.08,right,right,0.9312040349996096,correct,1
Block 2: Binocular_Crowded,38,-0.13999999999999999,right,left,1.6812365639998461,false,0
Block 2: Binocular_Crowded,39,-0.15,left,left,0.7793713150003896,correct,1
Block 2: Binocular_Crowded,40,-0.15,left,left,0.6887975439985894,correct,1
Block 2: Binocular_Crowded,41,-0.13999999999999999,left,left,0.911621761000788,correct,1
Block 2: Binocular_Crowded,42,-0.13999999999999999,left,left,0.749442487000124,correct,1
Block 2: Binocular_Crowded,43,0.08,right,right,0.9214476069992088,correct,1
Block 2: Binocular_Crowded,44,-0.12999999999999998,left,left,0.5668234700005996,correct,1
Block 2: Binocular_Crowded,45,-0.12999999999999998,left,left,0.566738121000526,correct,1
Block 2: Binocular_Crowded,46,-0.11999999999999998,left,left,0.6377309849995072,correct,1
Block 2: Binocular_Crowded,47,-0.11999999999999998,left,left,0.6074820439989708,correct,1
Block 2: Binocular_Crowded,48,0.07,left,right,0.5367858570007229,false,0
Block 2: Binocular_Crowded,49,0.08,right,right,0.7492956959995354,correct,1
Block 2: Binocular_Crowded,50,-0.10999999999999999,left,left,0.4755514240005141,correct,1
Block 2: Binocular_Crowded,51,-0.10999999999999999,left,left,0.6684627439990436,correct,1
Block 2: Binocular_Crowded,52,0.08,left,right,1.671203248000893,false,0
Block 2: Binocular_Crowded,53,0.09,right,right,0.43518074199892,correct,1
Block 2: Binocular_Crowded,54,0.09,left,right,0.8603638830009004,false,0
Block 2: Binocular_Crowded,55,0.09999999999999999,left,right,0.971848515999227,false,0
Block 2: Binocular_Crowded,56,-0.09999999999999999,right,left,1.4787170170002355,false,0
Block 2: Binocular_Crowded,57,0.10999999999999999,right,right,0.8811241610001161,correct,1
Block 2: Binocular_Crowded,58,0.10999999999999999,left,right,1.0729911150010594,false,0
Block 2: Binocular_Crowded,59,0.11999999999999998,right,right,1.1239021010005672,correct,1
Block 2: Binocular_Crowded,60,0.11999999999999998,left,right,1.8036032689997228,false,0
Block 2: Binocular_Crowded,61,0.12999999999999998,left,right,0.5669793880006182,false,0
Block 2: Binocular_Crowded,62,-0.10999999999999999,right,left,0.9118167090000497,false,0
Block 2: Binocular_Crowded,63,0.13999999999999999,right,right,0.5359313049993943,correct,1
Block 2: Binocular_Crowded,64,0.13999999999999999,right,right,0.7290562519992818,correct,1
Block 2: Binocular_Crowded,65,-0.11999999999999998,right,left,1.7219243710005685,false,0
Block 2: Binocular_Crowded,66,-0.12999999999999998,right,left,1.0535267639988888,false,0
Block 2: Binocular_Crowded,67,-0.13999999999999999,left,left,0.6584485879993736,correct,1
Block 2: Binocular_Crowded,68,-0.13999999999999999,left,left,0.8818332509999891,correct,1
Block 2: Binocular_Crowded,69,0.12999999999999998,right,right,0.5566842989992438,correct,1
Block 2: Binocular_Crowded,70,-0.12999999999999998,left,left,0.6780963210003392,correct,1
Block 2: Binocular_Crowded,71,-0.12999999999999998,left,left,0.7283282549997239,correct,1
Block 2: Binocular_Crowded,72,-0.11999999999999998,right,left,0.566846446999989,false,0
Block 2: Binocular_Crowded,73,0.12999999999999998,right,right,1.0935770070009312,correct,1
Block 2: Binocular_Crowded,74,0.11999999999999998,right,right,0.779413582999041,correct,1
Block 2: Binocular_Crowded,75,0.11999999999999998,left,right,2.0254007509993244,false,0
Block 2: Binocular_Crowded,76,-0.12999999999999998,left,left,0.607268739000574,correct,1
Block 2: Binocular_Crowded,77,-0.12999999999999998,left,left,0.5875780200003646,correct,1
Block 2: Binocular_Crowded,78,0.12999999999999998,right,right,0.5570710040010454,correct,1
Block 2: Binocular_Crowded,79,-0.11999999999999998,left,left,0.4658760419988539,correct,1
Block 2: Binocular_Crowded,80,-0.11999999999999998,right,left,0.5974792999986676,false,0
Block 2: Binocular_Crowded,81,0.12999999999999998,right,right,1.0628217110006517,correct,1
Block 2: Binocular_Crowded,82,-0.12999999999999998,right,left,1.1538389659999666,false,0
Block 2: Binocular_Crowded,83,0.11999999999999998,right,right,0.941844837001554,correct,1
Block 2: Binocular_Crowded,84,0.11999999999999998,right,right,0.9110055430010107,correct,1
Block 2: Binocular_Crowded,85,0.10999999999999999,right,right,0.7086194250005065,correct,1
Block 2: Binocular_Crowded,86,-0.13999999999999999,right,left,0.5566026190008415,false,0
Block 2: Binocular_Crowded,87,-0.15,left,left,0.5671684999997524,correct,1
Block 2: Binocular_Crowded,88,0.10999999999999999,right,right,1.7923650459997589,correct,1
Block 2: Binocular_Crowded,89,-0.15,left,left,0.6476848109996354,correct,1
Block 2: Binocular_Crowded,90,0.09999999999999999,right,right,0.5368435809996299,correct,1
Block 2: Binocular_Crowded,91,-0.13999999999999999,right,left,1.1950752209995699,false,0
Block 2: Binocular_Crowded,92,0.09999999999999999,right,right,0.4856554750003852,correct,1
Block 2: Binocular_Crowded,93,0.09,right,right,0.5364887989999261,correct,1
Block 2: Binocular_Crowded,94,0.09,right,right,1.3253982810001617,correct,1
Block 2: Binocular_Crowded,95,-0.15,right,left,0.9132312209985685,false,0
Block 2: Binocular_Crowded,96,-0.16,right,left,2.2383598889991845,false,0
Block 2: Binocular_Crowded,97,-0.17,left,left,0.46529471800022293,correct,1
Block 2: Binocular_Crowded,98,0.08,right,right,0.6482125660004385,correct,1
Block 2: Binocular_Crowded,99,-0.17,left,left,0.5874621409984684,correct,1
Block 2: Binocular_Crowded,100,0.08,right,right,0.5162462219996087,correct,1
Block 2: Binocular_Crowded,101,0.07,left,right,0.6476376610007719,false,0
Block 2: Binocular_Crowded,102,-0.16,left,left,0.36417383899970446,correct,1
Block 2: Binocular_Crowded,103,0.08,right,right,0.5873698539999168,correct,1
Block 2: Binocular_Crowded,104,-0.16,left,left,0.42485045200010063,correct,1
Block 2: Binocular_Crowded,105,-0.15,left,left,0.5973624399994151,correct,1
Block 2: Binocular_Crowded,106,0.08,right,right,0.4964256219991512,correct,1
Block 2: Binocular_Crowded,107,0.07,right,right,0.6987315390015283,correct,1
Block 2: Binocular_Crowded,108,-0.15,left,left,0.3744169530000363,correct,1
Block 2: Binocular_Crowded,109,0.07,right,right,0.4352371149998362,correct,1
Block 2: Binocular_Crowded,110,-0.13999999999999999,left,left,0.8407867540008738,correct,1
Block 2: Binocular_Crowded,111,0.060000000000000005,right,right,0.6987379380007042,correct,1
Block 2: Binocular_Crowded,112,-0.13999999999999999,right,left,0.6787161159991228,false,0
Block 2: Binocular_Crowded,113,0.060000000000000005,left,right,0.840303805000076,false,0
Block 2: Binocular_Crowded,114,0.07,left,right,1.154551593999713,false,0
Block 2: Binocular_Crowded,115,0.08,right,right,0.44620208800006367,correct,1
Block 2: Binocular_Crowded,116,0.08,right,right,1.215775227999984,correct,1
Block 2: Binocular_Crowded,117,-0.15,right,left,1.0829309130003821,false,0
Block 2: Binocular_Crowded,118,0.07,left,right,1.1343772939999326,false,0
Block 2: Binocular_Crowded,119,-0.16,left,left,0.4451057900005253,correct,1
Block 2: Binocular_Crowded,120,-0.16,left,left,0.5562510509989806,correct,1
Block 2: Binocular_Crowded,121,0.08,right,right,0.7188503550005407,correct,1
Block 2: Binocular_Crowded,122,0.08,right,right,1.5999163699998462,correct,1
Block 2: Binocular_Crowded,123,-0.15,left,left,0.7797164129988232,correct,1
Block 2: Binocular_Crowded,124,-0.15,left,left,0.5666222359996027,correct,1
Block 2: Binocular_Crowded,125,0.07,left,right,0.4966096389998711,false,0
Block 2: Binocular_Crowded,126,-0.13999999999999999,right,left,0.283169694001117,false,0
Block 2: Binocular_Crowded,127,0.08,left,right,0.30332585299947823,false,0
Block 2: Binocular_Crowded,128,0.09,right,right,0.22239113099931274,correct,1
Block 2: Binocular_Crowded,129,-0.15,left,left,0.5159981729993888,correct,1
Block 2: Binocular_Crowded,130,-0.15,left,left,0.8406258630002412,correct,1
Block 2: Binocular_Crowded,131,0.09,left,right,1.2676132779997715,false,0
Block 2: Binocular_Crowded,132,-0.13999999999999999,left,left,0.44524828199973854,correct,1
Block 2: Binocular_Crowded,133,-0.13999999999999999,left,left,0.6277905219994864,correct,1
Block 2: Binocular_Crowded,134,0.09999999999999999,right,right,0.48563667999951576,correct,1
Block 2: Binocular_Crowded,135,0.09999999999999999,left,right,0.5769726649996301,false,0
Block 2: Binocular_Crowded,136,0.10999999999999999,right,right,0.4555551410012413,correct,1
Block 2: Binocular_Crowded,137,0.10999999999999999,right,right,0.6981616829998529,correct,1
Block 2: Binocular_Crowded,138,0.09999999999999999,right,right,0.7084590940012276,correct,1
Block 2: Binocular_Crowded,139,0.09999999999999999,right,right,0.6178075400002854,correct,1
Block 2: Binocular_Crowded,140,-0.12999999999999998,left,left,0.49610938299883856,correct,1
Block 2: Binocular_Crowded,141,0.09,right,right,0.5671447129989247,correct,1
Block 2: Binocular_Crowded,142,-0.12999999999999998,left,left,0.465275982998719,correct,1
Block 2: Binocular_Crowded,143,-0.11999999999999998,left,left,0.5568543089993909,correct,1
Block 2: Binocular_Crowded,144,-0.11999999999999998,left,left,0.47566611299953365,correct,1
Block 2: Binocular_Crowded,145,-0.10999999999999999,right,left,0.6988546089996817,false,0
Block 2: Binocular_Crowded,146,0.09,left,right,0.5967761509982665,false,0
Block 2: Binocular_Crowded,147,0.09999999999999999,right,right,0.667803421998542,correct,1
Block 2: Binocular_Crowded,148,-0.11999999999999998,left,left,0.45546458199896733,correct,1
Block 2: Binocular_Crowded,149,0.09999999999999999,right,right,0.5867210189990146,correct,1
Block 2: Binocular_Crowded,150,-0.11999999999999998,left,left,0.45558957799948985,correct,1
Block 2: Binocular_Crowded,151,0.09,right,right,0.6172396530000697,correct,1
Block 2: Binocular_Crowded,152,0.09,left,right,0.5269400140005018,false,0
Block 2: Binocular_Crowded,153,-0.10999999999999999,right,left,0.7795690290004131,false,0
Block 2: Binocular_Crowded,154,-0.11999999999999998,left,left,0.44513408800048637,correct,1
Block 2: Binocular_Crowded,155,-0.11999999999999998,left,left,0.7594900080002844,correct,1
Block 2: Binocular_Crowded,156,-0.10999999999999999,left,left,0.7092331779986125,correct,1
Block 2: Binocular_Crowded,157,0.09999999999999999,right,right,0.48576444200080005,correct,1
Block 2: Binocular_Crowded,158,0.09999999999999999,left,right,1.1753237890006858,false,0
Block 2: Binocular_Crowded,159,0.10999999999999999,right,right,0.4354025640004693,correct,1
Block 2: Binocular_Crowded,160,0.10999999999999999,left,right,1.4179634979991533,false,0
Block 2: Binocular_Crowded,161,-0.10999999999999999,left,left,0.5465942160008126,correct,1
Block 2: Binocular_Crowded,162,-0.09999999999999999,left,left,0.962253296000199,correct,1
Block 2: Binocular_Crowded,163,0.11999999999999998,right,right,0.4452049339997757,correct,1
Block 2: Binocular_Crowded,164,-0.09999999999999999,right,left,3.0783388009986083,false,0
Block 2: Binocular_Crowded,165,0.11999999999999998,right,right,0.6377847500007192,correct,1
Block 2: Binocular_Crowded,166,-0.10999999999999999,left,left,0.4047069520001969,correct,1
Block 2: Binocular_Crowded,167,0.10999999999999999,right,right,0.4346179359999951,correct,1
Block 2: Binocular_Crowded,168,-0.10999999999999999,left,left,0.5867261459989095,correct,1
Block 2: Binocular_Crowded,169,-0.09999999999999999,left,left,0.49604003300009936,correct,1
Block 3: Monocular_Standard,0,-0.15,left,left,1.3670827730002202,correct,1
Block 3: Monocular_Standard,1,-0.15,left,left,0.5573982899986731,correct,1
Block 3: Monocular_Standard,2,0.15,right,right,0.5270742800003063,correct,1
Block 3: Monocular_Standard,3,-0.13999999999999999,left,left,0.5568899640002201,correct,1
Block 3: Monocular_Standard,4,-0.13999999999999999,right,left,0.708128566000596,false,0
Block 3: Monocular_Standard,5,-0.15,left,left,0.6679156730006071,correct,1
Block 3: Monocular_Standard,6,0.15,right,right,0.5164549500004796,correct,1
Block 3: Monocular_Standard,7,0.13999999999999999,right,right,0.5771549370001594,correct,1
Block 3: Monocular_Standard,8,-0.15,left,left,0.8905659119991469,correct,1
Block 3: Monocular_Standard,9,-0.13999999999999999,left,left,0.6371324249994359,correct,1
Block 3: Monocular_Standard,10,-0.13999999999999999,left,left,1.9050541010001325,correct,1
Block 3: Monocular_Standard,11,-0.12999999999999998,left,left,0.46595330299896887,correct,1
Block 3: Monocular_Standard,12,0.13999999999999999,right,right,0.40459184300016204,correct,1
Block 3: Monocular_Standard,13,0.12999999999999998,right,right,0.3439234570014378,correct,1
Block 3: Monocular_Standard,14,-0.12999999999999998,left,left,0.44549756000014895,correct,1
Block 3: Monocular_Standard,15,0.12999999999999998,right,right,0.29339380100100243,correct,1
Block 3: Monocular_Standard,16,-0.11999999999999998,left,left,0.4755215450004471,correct,1
Block 3: Monocular_Standard,17,0.11999999999999998,right,right,0.2935525559987582,correct,1
Block 3: Monocular_Standard,18,0.11999999999999998,right,right,0.39496209000026283,correct,1
Block 3: Monocular_Standard,19,0.10999999999999999,right,right,0.4448984959999507,correct,1
Block 3: Monocular_Standard,20,0.10999999999999999,right,right,0.5462493859995448,correct,1
Block 3: Monocular_Standard,21,0.09999999999999999,right,right,0.4456861629987543,correct,1
Block 3: Monocular_Standard,22,0.09999999999999999,right,right,0.5163193919997866,correct,1
Block 3: Monocular_Standard,23,-0.11999999999999998,right,left,0.8401835530003154,false,0
Block 3: Monocular_Standard,24,-0.12999999999999998,left,left,0.3846660979997978,correct,1
Block 3: Monocular_Standard,25,-0.12999999999999998,left,left,0.5564618509997672,correct,1
Block 3: Monocular_Standard,26,-0.11999999999999998,left,left,0.54658302900134,correct,1
Block 3: Monocular_Standard,27,-0.11999999999999998,left,left,0.47530532400014636,correct,1
Block 3: Monocular_Standard,28,0.09,right,right,0.3947187069989013,correct,1
Block 3: Monocular_Standard,29,0.09,right,right,0.40458966000005603,correct,1
Block 3: Monocular_Standard,30,-0.10999999999999999,right,left,0.3540968339984829,false,0
Block 3: Monocular_Standard,31,0.08,right,right,0.5567678839997825,correct,1
Block 3: Monocular_Standard,32,-0.11999999999999998,left,left,0.47622631500053103,correct,1
Block 3: Monocular_Standard,33,-0.11999999999999998,left,left,0.5062638990002597,correct,1
Block 3: Monocular_Standard,34,0.08,right,right,0.505817062999995,correct,1
Block 3: Monocular_Standard,35,0.07,right,right,0.3448850200002198,correct,1
Block 3: Monocular_Standard,36,0.07,right,right,0.4655076020007982,correct,1
Block 3: Monocular_Standard,37,-0.10999999999999999,left,left,0.5972817340007168,correct,1
Block 3: Monocular_Standard,38,0.060000000000000005,right,right,0.4858471980005561,correct,1
Block 3: Monocular_Standard,39,-0.10999999999999999,left,left,0.4552740859999176,correct,1
Block 3: Monocular_Standard,40,0.060000000000000005,right,right,0.3946574140009034,correct,1
Block 3: Monocular_Standard,41,0.05,right,right,0.5566248129998712,correct,1
Block 3: Monocular_Standard,42,-0.09999999999999999,left,left,0.46583635700153536,correct,1
Block 3: Monocular_Standard,43,-0.09999999999999999,left,left,0.577392057999532,correct,1
Block 3: Monocular_Standard,44,0.05,right,right,0.35429752900017775,correct,1
Block 3: Monocular_Standard,45,-0.09,left,left,0.4160216689997469,correct,1
Block 3: Monocular_Standard,46,0.04,right,right,0.4054289529995003,correct,1
Block 3: Monocular_Standard,47,0.04,right,right,0.3956714980013203,correct,1
Block 3: Monocular_Standard,48,0.03,right,right,0.5464091200010444,correct,1
Block 3: Monocular_Standard,49,0.03,right,right,0.5159529740012658,correct,1
Block 3: Monocular_Standard,50,0.019999999999999997,right,right,0.4452810290003981,correct,1
Block 3: Monocular_Standard,51,-0.09,left,left,0.8200231770006212,correct,1
Block 3: Monocular_Standard,52,-0.08,left,left,0.7289792080009647,correct,1
Block 3: Monocular_Standard,53,-0.08,left,left,0.7292974209995009,correct,1
Block 3: Monocular_Standard,54,-0.07,left,left,1.0637673889996222,correct,1
Block 3: Monocular_Standard,55,-0.07,right,left,0.3844255650001287,false,0
Block 3: Monocular_Standard,56,-0.08,left,left,0.505873303000044,correct,1
Block 3: Monocular_Standard,57,-0.08,left,left,0.45507499399900553,correct,1
Block 3: Monocular_Standard,58,0.019999999999999997,left,right,0.4755252470004052,false,0
Block 3: Monocular_Standard,59,-0.07,left,left,0.5973855229985929,correct,1
Block 3: Monocular_Standard,60,-0.07,left,left,0.5063683839998703,correct,1
Block 3: Monocular_Standard,61,-0.060000000000000005,left,left,0.6376450819989259,correct,1
Block 3: Monocular_Standard,62,-0.060000000000000005,left,left,0.5164147399991634,correct,1
Block 3: Monocular_Standard,63,-0.05,left,left,0.7891719929993997,correct,1
Block 3: Monocular_Standard,64,0.03,right,right,1.387767153999448,correct,1
Block 3: Monocular_Standard,65,0.03,left,right,0.5266684449998138,false,0
Block 3: Monocular_Standard,66,-0.05,left,left,0.8709853450000082,correct,1
Block 3: Monocular_Standard,67,-0.04,left,left,0.5465776280016144,correct,1
Block 3: Monocular_Standard,68,-0.04,right,left,0.9111912150001444,false,0
Block 3: Monocular_Standard,69,0.04,right,right,0.7290965629999846,correct,1
Block 3: Monocular_Standard,70,0.04,right,right,0.8413115219991596,correct,1
Block 3: Monocular_Standard,71,-0.05,left,left,0.7287292769997293,correct,1
Block 3: Monocular_Standard,72,0.03,right,right,2.087095141001555,correct,1
Block 3: Monocular_Standard,73,0.03,right,right,0.72884330800116,correct,1
Block 3: Monocular_Standard,74,-0.05,left,left,1.083698402000664,correct,1
Block 3: Monocular_Standard,75,0.019999999999999997,right,right,0.4959559609997086,correct,1
Block 3: Monocular_Standard,76,-0.04,left,left,1.0640682829998696,correct,1
Block 3: Monocular_Standard,77,-0.04,left,left,0.71920267600035,correct,1
Block 3: Monocular_Standard,78,0.019999999999999997,right,right,0.8301217459993495,correct,1
Block 3: Monocular_Standard,79,-0.03,left,left,0.4959763959996053,correct,1
Block 3: Monocular_Standard,80,-0.03,left,left,0.6274693659997865,correct,1
Block 3: Monocular_Standard,81,0.009999999999999997,right,right,0.5164640089988097,correct,1
Block 3: Monocular_Standard,82,-0.019999999999999997,left,left,0.4960289840000769,correct,1
Block 3: Monocular_Standard,83,0.009999999999999997,right,right,0.607590462999724,correct,1
Block 3: Monocular_Standard,84,-0.019999999999999997,left,left,0.5674364999995305,correct,1
Block 3: Monocular_Standard,85,-0.009999999999999997,right,left,0.7701651719999063,false,0
Block 3: Monocular_Standard,86,-0.019999999999999997,right,left,0.7595691839997016,false,0
Block 3: Monocular_Standard,87,-3.469446951953614e-18,right,right,0.6075001210010669,correct,1
Block 3: Monocular_Standard,88,-3.469446951953614e-18,right,right,0.8404912340010924,correct,1
Block 3: Monocular_Standard,89,-0.03,left,left,0.718853731001218,correct,1
Block 3: Monocular_Standard,90,-0.010000000000000004,right,right,0.46537990599972545,correct,1
Block 3: Monocular_Standard,91,-0.010000000000000004,right,right,0.5268855020003684,correct,1
Block 3: Monocular_Standard,92,-0.03,left,left,0.677914003999831,correct,1
Block 3: Monocular_Standard,93,-0.020000000000000004,right,right,0.6683646350011259,correct,1
Block 3: Monocular_Standard,94,-0.019999999999999997,right,left,0.5273374320004223,false,0
Block 3: Monocular_Standard,95,-0.03,right,left,0.56690389600044,false,0
Block 3: Monocular_Standard,96,-0.020000000000000004,right,right,0.6580713580005977,correct,1
Block 3: Monocular_Standard,97,-0.04,left,left,1.6613672990006307,correct,1
Block 3: Monocular_Standard,98,-0.04,left,left,0.6483461360003275,correct,1
Block 3: Monocular_Standard,99,-0.03,left,left,0.8006050690000848,correct,1
Block 3: Monocular_Standard,100,-0.030000000000000006,left,right,0.567346527999689,false,0
Block 3: Monocular_Standard,101,-0.03,right,left,0.8000827089999802,false,0
Block 3: Monocular_Standard,102,-0.04,right,left,0.6073717880008189,false,0
Block 3: Monocular_Standard,103,-0.020000000000000004,right,right,0.6382368529993983,correct,1
Block 3: Monocular_Standard,104,-0.05,left,left,0.5269311259999085,correct,1
Block 3: Monocular_Standard,105,-0.020000000000000004,right,right,0.6687095019988192,correct,1
Block 3: Monocular_Standard,106,-0.05,right,left,0.526704490001066,false,0
Block 3: Monocular_Standard,107,-0.030000000000000006,left,right,0.45522621300005994,false,0
Block 3: Monocular_Standard,108,-0.020000000000000004,right,right,0.6278480340006354,correct,1
Block 3: Monocular_Standard,109,-0.020000000000000004,right,right,0.6585863560012513,correct,1
Block 3: Monocular_Standard,110,-0.060000000000000005,right,left,0.7592080200010969,false,0
Block 3: Monocular_Standard,111,-0.030000000000000006,left,right,1.0023042279990477,false,0
Block 3: Monocular_Standard,112,-0.07,left,left,0.6783724130000337,correct,1
Block 3: Monocular_Standard,113,-0.020000000000000004,right,right,0.7287484200005565,correct,1
Block 3: Monocular_Standard,114,-0.07,right,left,1.2250747799989767,false,0
Block 3: Monocular_Standard,115,-0.08,left,left,0.5363578950000374,correct,1
Block 3: Monocular_Standard,116,-0.020000000000000004,left,right,0.5564343510013714,false,0
Block 3: Monocular_Standard,117,-0.010000000000000004,right,right,0.506089874999816,correct,1
Block 3: Monocular_Standard,118,-0.08,left,left,0.5666338749997522,correct,1
Block 3: Monocular_Standard,119,-0.010000000000000004,left,right,0.5564201609995507,false,0
Block 3: Monocular_Standard,120,-3.469446951953614e-18,right,right,0.5260676039997634,correct,1
Block 3: Monocular_Standard,121,-0.07,left,left,0.5564883259994531,correct,1
Block 3: Monocular_Standard,122,-3.469446951953614e-18,left,right,0.9717442140008643,false,0
Block 3: Monocular_Standard,123,0.009999999999999997,right,right,0.6684083250002004,correct,1
Block 3: Monocular_Standard,124,-0.07,left,left,0.5363250090013025,correct,1
Block 3: Monocular_Standard,125,-0.060000000000000005,left,left,0.5264245050002501,correct,1
Block 3: Monocular_Standard,126,0.009999999999999997,left,right,0.6379829670004256,false,0
Block 3: Monocular_Standard,127,0.019999999999999997,right,right,0.4350967850004963,correct,1
Block 3: Monocular_Standard,128,-0.060000000000000005,left,left,0.5160488840010657,correct,1
Block 3: Monocular_Standard,129,-0.05,left,left,0.5774027630013734,correct,1
Block 3: Monocular_Standard,130,0.019999999999999997,right,right,0.7495178900007886,correct,1
Block 3: Monocular_Standard,131,-0.05,left,left,0.5868188079984975,correct,1
Block 3: Monocular_Standard,132,0.009999999999999997,left,right,0.485302575998503,false,0
Block 3: Monocular_Standard,133,0.019999999999999997,right,right,0.2732519500004855,correct,1
Block 3: Monocular_Standard,134,-0.04,left,left,1.0021515780008485,correct,1
Block 3: Monocular_Standard,135,-0.04,left,left,0.6891206919990509,correct,1
Block 3: Monocular_Standard,136,0.019999999999999997,right,right,0.6885671529998945,correct,1
Block 3: Monocular_Standard,137,-0.03,left,left,0.4453351690008276,correct,1
Block 3: Monocular_Standard,138,0.009999999999999997,right,right,0.44542907799950626,correct,1
Block 3: Monocular_Standard,139,0.009999999999999997,left,right,0.49612189999970724,false,0
Block 3: Monocular_Standard,140,0.019999999999999997,right,right,0.34393383000133326,correct,1
Block 3: Monocular_Standard,141,0.019999999999999997,right,right,0.7891274789999443,correct,1
Block 3: Monocular_Standard,142,0.009999999999999997,right,right,0.5774170659988158,correct,1
Block 3: Monocular_Standard,143,-0.03,right,left,1.033464942000137,false,0
Block 3: Monocular_Standard,144,-0.04,left,left,0.49575587999970594,correct,1
Block 3: Monocular_Standard,145,0.009999999999999997,right,right,0.5162943810009892,correct,1
Block 3: Monocular_Standard,146,-0.04,right,left,0.5462444480017439,false,0
Block 3: Monocular_Standard,147,-3.469446951953614e-18,right,right,0.6576321059983457,correct,1
Block 3: Monocular_Standard,148,-3.469446951953614e-18,left,right,0.48548175699943386,false,0
Block 3: Monocular_Standard,149,0.009999999999999997,right,right,0.4453808550006215,correct,1
Block 3: Monocular_Standard,150,0.009999999999999997,right,right,0.38438385800145625,correct,1
Block 3: Monocular_Standard,151,-0.05,left,left,0.96210634199997,correct,1
Block 3: Monocular_Standard,152,-0.05,left,left,0.6578661960011232,correct,1
Block 3: Monocular_Standard,153,-0.04,left,left,0.5365669160000834,correct,1
Block 3: Monocular_Standard,154,-0.04,left,left,0.5772512869989441,correct,1
Block 3: Monocular_Standard,155,-0.03,left,left,0.6377646510009072,correct,1
Block 3: Monocular_Standard,156,-3.469446951953614e-18,left,right,0.7597863259998121,false,0
Block 3: Monocular_Standard,157,0.009999999999999997,left,right,0.8810480980009743,false,0
Block 3: Monocular_Standard,158,0.019999999999999997,right,right,0.495870651999212,correct,1
Block 3: Monocular_Standard,159,0.019999999999999997,left,right,0.9109058449994336,false,0
Block 3: Monocular_Standard,160,-0.03,left,left,0.728804427999421,correct,1
Block 3: Monocular_Standard,161,0.03,right,right,0.4960850980005489,correct,1
Block 3: Monocular_Standard,162,0.03,right,right,0.8408843849992991,correct,1
Block 3: Monocular_Standard,163,0.019999999999999997,right,right,0.5363041929995234,correct,1
Block 3: Monocular_Standard,164,0.019999999999999997,right,right,1.0126444609995815,correct,1
Block 3: Monocular_Standard,165,0.009999999999999997,right,right,0.5262560409992147,correct,1
Block 3: Monocular_Standard,166,0.009999999999999997,right,right,0.6373719309995067,correct,1
Block 3: Monocular_Standard,167,-3.469446951953614e-18,left,right,0.9313428299992665,false,0
Block 3: Monocular_Standard,168,-0.019999999999999997,right,left,0.50661190000028,false,0
Block 3: Monocular_Standard,169,-0.03,right,left,0.5868155640000623,false,0
Block 4: Monocular_Crowded,0,0.15,right,right,1.2858291800002917,correct,1
Block 4: Monocular_Crowded,1,-0.15,left,left,0.5667070019990206,correct,1
Block 4: Monocular_Crowded,2,-0.15,right,left,0.7393177789999754,false,0
Block 4: Monocular_Crowded,3,-0.16,left,left,0.39445715000147175,correct,1
Block 4: Monocular_Crowded,4,-0.16,left,left,1.3466218789999402,correct,1
Block 4: Monocular_Crowded,5,0.15,right,right,0.7183775350003998,correct,1
Block 4: Monocular_Crowded,6,-0.15,left,left,0.5160532919999241,correct,1
Block 4: Monocular_Crowded,7,-0.15,right,left,2.6533752099985577,false,0
Block 4: Monocular_Crowded,8,0.13999999999999999,left,right,0.5363245850003295,false,0
Block 4: Monocular_Crowded,9,0.15,right,right,0.6277164840012119,correct,1
Block 4: Monocular_Crowded,10,-0.16,left,left,0.5266551000004256,correct,1
Block 4: Monocular_Crowded,11,-0.16,right,left,0.475683332000699,false,0
Block 4: Monocular_Crowded,12,0.15,right,right,0.6480776040007186,correct,1
Block 4: Monocular_Crowded,13,-0.17,left,left,0.6175017380010104,correct,1
Block 4: Monocular_Crowded,14,-0.17,left,left,0.8711240800002997,correct,1
Block 4: Monocular_Crowded,15,0.13999999999999999,right,right,0.7594445180002367,correct,1
Block 4: Monocular_Crowded,16,0.13999999999999999,left,right,1.4991634970010637,false,0
Block 4: Monocular_Crowded,17,0.15,right,right,0.546641777998957,correct,1
Block 4: Monocular_Crowded,18,-0.16,left,left,0.5670192079996923,correct,1
Block 4: Monocular_Crowded,19,0.15,right,right,0.4658325020009215,correct,1
Block 4: Monocular_Crowded,20,0.13999999999999999,right,right,0.566560612000103,correct,1
Block 4: Monocular_Crowded,21,0.13999999999999999,right,right,0.6278394609998941,correct,1
Block 4: Monocular_Crowded,22,0.12999999999999998,right,right,0.5362180469983286,correct,1
Block 4: Monocular_Crowded,23,0.12999999999999998,left,right,0.3235532239996246,false,0
Block 4: Monocular_Crowded,24,0.13999999999999999,right,right,1.1250233370010392,correct,1
Block 4: Monocular_Crowded,25,0.13999999999999999,right,right,0.6079543569994712,correct,1
Block 4: Monocular_Crowded,26,0.12999999999999998,right,right,0.5060777439994126,correct,1
Block 4: Monocular_Crowded,27,-0.16,left,left,0.5161508029996185,correct,1
Block 4: Monocular_Crowded,28,0.12999999999999998,right,right,0.4657374280013755,correct,1
Block 4: Monocular_Crowded,29,-0.15,left,left,0.5871831730000849,correct,1
Block 4: Monocular_Crowded,30,0.11999999999999998,right,right,0.6377779350004857,correct,1
Block 4: Monocular_Crowded,31,0.11999999999999998,left,right,0.6481455190005363,false,0
Block 4: Monocular_Crowded,32,-0.15,left,left,0.5264385480004421,correct,1
Block 4: Monocular_Crowded,33,0.12999999999999998,right,right,0.5970981430000393,correct,1
Block 4: Monocular_Crowded,34,-0.13999999999999999,left,left,0.5874169130001974,correct,1
Block 4: Monocular_Crowded,35,-0.13999999999999999,left,left,0.5773653220003325,correct,1
Block 4: Monocular_Crowded,36,0.12999999999999998,right,right,0.5054779989986855,correct,1
Block 4: Monocular_Crowded,37,-0.12999999999999998,right,left,1.0732363879997138,false,0
Block 4: Monocular_Crowded,38,0.11999999999999998,left,right,0.4555122210003901,false,0
Block 4: Monocular_Crowded,39,-0.13999999999999999,left,left,0.5566538570001285,correct,1
Block 4: Monocular_Crowded,40,-0.13999999999999999,left,left,1.0632045040001685,correct,1
Block 4: Monocular_Crowded,41,0.12999999999999998,right,right,0.45523012000012386,correct,1
Block 4: Monocular_Crowded,42,0.12999999999999998,right,right,0.82987785899968,correct,1
Block 4: Monocular_Crowded,43,-0.12999999999999998,left,left,0.7696377060001396,correct,1
Block 4: Monocular_Crowded,44,-0.12999999999999998,right,left,1.022730696000508,false,0
Block 4: Monocular_Crowded,45,-0.13999999999999999,left,left,0.44543883800179174,correct,1
Block 4: Monocular_Crowded,46,-0.13999999999999999,left,left,0.6985687390006206,correct,1
Block 4: Monocular_Crowded,47,0.11999999999999998,left,right,0.49557915599871194,false,0
Block 4: Monocular_Crowded,48,0.12999999999999998,right,right,0.7088827549996495,correct,1
Block 4: Monocular_Crowded,49,0.12999999999999998,right,right,0.5464592879998236,correct,1
Block 4: Monocular_Crowded,50,-0.12999999999999998,right,left,1.2452331959993899,false,0
Block 4: Monocular_Crowded,51,0.11999999999999998,right,right,0.5567934580012661,correct,1
Block 4: Monocular_Crowded,52,0.11999999999999998,left,right,0.4150956209996366,false,0
Block 4: Monocular_Crowded,53,0.12999999999999998,right,right,2.319361857000331,correct,1
Block 4: Monocular_Crowded,54,-0.13999999999999999,left,left,0.6073132439996698,correct,1
Block 4: Monocular_Crowded,55,-0.13999999999999999,left,left,0.5773219729999255,correct,1
Block 4: Monocular_Crowded,56,-0.12999999999999998,left,left,0.7291865280003549,correct,1
Block 4: Monocular_Crowded,57,-0.12999999999999998,right,left,0.4665118369994161,false,0
Block 4: Monocular_Crowded,58,0.12999999999999998,right,right,1.0941829170005803,correct,1
Block 4: Monocular_Crowded,59,-0.13999999999999999,left,left,0.5666260090001742,correct,1
Block 4: Monocular_Crowded,60,0.11999999999999998,right,right,0.8001078460001736,correct,1
Block 4: Monocular_Crowded,61,0.11999999999999998,right,right,1.083479922999686,correct,1
Block 4: Monocular_Crowded,62,0.10999999999999999,right,right,1.671073098999841,correct,1
Block 4: Monocular_Crowded,63,-0.13999999999999999,left,left,0.5068923729995731,correct,1
Block 4: Monocular_Crowded,64,-0.12999999999999998,left,left,0.5869637260002492,correct,1
Block 4: Monocular_Crowded,65,0.10999999999999999,right,right,0.7591981589994248,correct,1
Block 4: Monocular_Crowded,66,0.09999999999999999,right,right,1.2662929680009256,correct,1
Block 4: Monocular_Crowded,67,-0.12999999999999998,left,left,1.702648386999499,correct,1
Block 4: Monocular_Crowded,68,-0.11999999999999998,right,left,0.8908032219987945,false,0
Block 4: Monocular_Crowded,69,0.09999999999999999,right,right,2.086359793000156,correct,1
Block 4: Monocular_Crowded,70,0.09,right,right,1.1137378920011543,correct,1
Block 4: Monocular_Crowded,71,0.09,right,right,0.5766015909994167,correct,1
Block 4: Monocular_Crowded,72,-0.12999999999999998,left,left,1.0330906830004096,correct,1
Block 4: Monocular_Crowded,73,0.08,right,right,0.587104387999716,correct,1
Block 4: Monocular_Crowded,74,-0.12999999999999998,left,left,0.6877698820007936,correct,1
Block 4: Monocular_Crowded,75,-0.11999999999999998,right,left,0.5564354019988969,false,0
Block 4: Monocular_Crowded,76,-0.12999999999999998,left,left,0.5683251740010746,correct,1
Block 4: Monocular_Crowded,77,-0.12999999999999998,right,left,1.68161751200023,false,0
Block 4: Monocular_Crowded,78,-0.13999999999999999,left,left,0.5463791559996025,correct,1
Block 4: Monocular_Crowded,79,0.08,right,right,0.556536928001151,correct,1
Block 4: Monocular_Crowded,80,0.07,left,right,0.7182926419991418,false,0
Block 4: Monocular_Crowded,81,-0.13999999999999999,left,left,0.5874517660013225,correct,1
Block 4: Monocular_Crowded,82,0.08,right,right,1.2052440240004216,correct,1
Block 4: Monocular_Crowded,83,0.08,left,right,0.6583318749999307,false,0
Block 4: Monocular_Crowded,84,0.09,right,right,0.505994783999995,correct,1
Block 4: Monocular_Crowded,85,0.09,right,right,1.3768778239991661,correct,1
Block 4: Monocular_Crowded,86,0.08,left,right,1.8636092399992776,false,0
Block 4: Monocular_Crowded,87,0.09,right,right,1.7624421019991132,correct,1
Block 4: Monocular_Crowded,88,-0.12999999999999998,left,left,0.7395404949984368,correct,1
Block 4: Monocular_Crowded,89,-0.12999999999999998,left,left,0.6579460539996944,correct,1
Block 4: Monocular_Crowded,90,-0.11999999999999998,left,left,0.6171081389984465,correct,1
Block 4: Monocular_Crowded,91,0.09,left,right,1.4177149959996314,false,0
Block 4: Monocular_Crowded,92,-0.11999999999999998,left,left,0.5378914730008546,correct,1
Block 4: Monocular_Crowded,93,-0.10999999999999999,left,left,0.7995161430008011,correct,1
Block 4: Monocular_Crowded,94,0.09999999999999999,right,right,0.5668583509996097,correct,1
Block 4: Monocular_Crowded,95,-0.10999999999999999,left,left,0.5566004089996568,correct,1
Block 4: Monocular_Crowded,96,-0.09999999999999999,left,left,1.7529655910002475,correct,1
Block 4: Monocular_Crowded,97,0.09999999999999999,right,right,0.7186453419999452,correct,1
Block 4: Monocular_Crowded,98,-0.09999999999999999,left,left,0.790010724998865,correct,1
Block 4: Monocular_Crowded,99,-0.09,left,left,0.6981249799991929,correct,1
Block 4: Monocular_Crowded,100,0.09,right,right,0.6580665340006817,correct,1
Block 4: Monocular_Crowded,101,-0.09,right,left,1.265968714000337,false,0
Block 4: Monocular_Crowded,102,-0.09999999999999999,right,left,0.6073247969998192,false,0
Block 4: Monocular_Crowded,103,0.09,left,right,0.48622815099952277,false,0
Block 4: Monocular_Crowded,104,-0.10999999999999999,left,left,0.5775262019997172,correct,1
Block 4: Monocular_Crowded,105,0.09999999999999999,left,right,1.1644298270002764,false,0
Block 4: Monocular_Crowded,106,0.10999999999999999,left,right,1.3572631939987332,false,0
Block 4: Monocular_Crowded,107,-0.10999999999999999,left,left,0.6582314229999611,correct,1
Block 4: Monocular_Crowded,108,0.11999999999999998,right,right,2.450625146000675,correct,1
Block 4: Monocular_Crowded,109,0.11999999999999998,right,right,1.1952988590001041,correct,1
Block 4: Monocular_Crowded,110,-0.09999999999999999,right,left,3.1598014459996193,false,0
Block 4: Monocular_Crowded,111,0.10999999999999999,left,right,0.5160655920008139,false,0
Block 4: Monocular_Crowded,112,0.11999999999999998,left,right,2.309051431999251,false,0
Block 4: Monocular_Crowded,113,0.12999999999999998,right,right,1.0430930689999514,correct,1
Block 4: Monocular_Crowded,114,-0.10999999999999999,right,left,0.9418821740000567,false,0
Block 4: Monocular_Crowded,115,0.12999999999999998,right,right,0.7288686640004016,correct,1
Block 4: Monocular_Crowded,116,-0.11999999999999998,right,left,1.8032286140005453,false,0
Block 4: Monocular_Crowded,117,0.11999999999999998,right,right,0.6587919339999644,correct,1
Block 4: Monocular_Crowded,118,-0.12999999999999998,left,left,0.5566222350007592,correct,1
Block 4: Monocular_Crowded,119,0.11999999999999998,right,right,0.6081532109983527,correct,1
Block 4: Monocular_Crowded,120,-0.12999999999999998,right,left,0.5873724270004459,false,0
Block 4: Monocular_Crowded,121,-0.13999999999999999,left,left,0.6881717309988744,correct,1
Block 4: Monocular_Crowded,122,-0.13999999999999999,right,left,0.8203284789997269,false,0
Block 4: Monocular_Crowded,123,-0.15,left,left,0.7493039359997056,correct,1
Block 4: Monocular_Crowded,124,-0.15,left,left,1.0125791589998698,correct,1
Block 4: Monocular_Crowded,125,-0.13999999999999999,left,left,0.5666925139994419,correct,1
Block 4: Monocular_Crowded,126,0.10999999999999999,right,right,0.4760943179990136,correct,1
Block 4: Monocular_Crowded,127,0.10999999999999999,right,right,0.5870069579996198,correct,1
Block 4: Monocular_Crowded,128,0.09999999999999999,right,right,0.6174713890013663,correct,1
Block 4: Monocular_Crowded,129,0.09999999999999999,right,right,0.607175291999738,correct,1
Block 4: Monocular_Crowded,130,-0.13999999999999999,left,left,0.7695762100011052,correct,1
Block 4: Monocular_Crowded,131,0.09,right,right,0.5869163259994821,correct,1
Block 4: Monocular_Crowded,132,0.09,right,right,0.6279233790010039,correct,1
Block 4: Monocular_Crowded,133,-0.12999999999999998,left,left,0.8710726630015415,correct,1
Block 4: Monocular_Crowded,134,-0.12999999999999998,left,left,0.5364275869997073,correct,1
Block 4: Monocular_Crowded,135,0.08,right,right,1.4881896099996084,correct,1
Block 4: Monocular_Crowded,136,0.08,right,right,0.8711607549994369,correct,1
Block 4: Monocular_Crowded,137,0.07,right,right,0.6373792399990634,correct,1
Block 4: Monocular_Crowded,138,0.07,right,right,1.1648478860006435,correct,1
Block 4: Monocular_Crowded,139,-0.11999999999999998,left,left,0.49626272699970286,correct,1
Block 4: Monocular_Crowded,140,-0.11999999999999998,left,left,0.7899040119991696,correct,1
Block 4: Monocular_Crowded,141,-0.10999999999999999,left,left,0.5568127259994071,correct,1
Block 4: Monocular_Crowded,142,-0.10999999999999999,left,left,1.387365900000077,correct,1
Block 4: Monocular_Crowded,143,0.060000000000000005,left,right,0.5972656840003765,false,0
Block 4: Monocular_Crowded,144,0.07,right,right,0.4657237579995126,correct,1
Block 4: Monocular_Crowded,145,0.07,right,right,0.6982636049997382,correct,1
Block 4: Monocular_Crowded,146,0.060000000000000005,right,right,0.6679373280003347,correct,1
Block 4: Monocular_Crowded,147,0.060000000000000005,right,right,0.9215537809996022,correct,1
Block 4: Monocular_Crowded,148,-0.09999999999999999,left,left,1.6307075500008068,correct,1
Block 4: Monocular_Crowded,149,-0.09999999999999999,right,left,1.0224974520006072,false,0
Block 4: Monocular_Crowded,150,-0.10999999999999999,left,left,0.5870963879988267,correct,1
Block 4: Monocular_Crowded,151,-0.10999999999999999,left,left,0.6991836419983883,correct,1
Block 4: Monocular_Crowded,152,-0.09999999999999999,left,left,0.6679479539998283,correct,1
Block 4: Monocular_Crowded,153,0.05,right,right,0.7490854040006525,correct,1
Block 4: Monocular_Crowded,154,-0.09999999999999999,left,left,1.6911782669994864,correct,1
Block 4: Monocular_Crowded,155,-0.09,right,left,0.7493329040007666,false,0
Block 4: Monocular_Crowded,156,0.05,left,right,0.4858007360016927,false,0
Block 4: Monocular_Crowded,157,0.060000000000000005,right,right,0.7596760619999259,correct,1
Block 4: Monocular_Crowded,158,0.060000000000000005,left,right,0.7692990630002896,false,0
Block 4: Monocular_Crowded,159,-0.09999999999999999,left,left,0.790769747000013,correct,1
Block 4: Monocular_Crowded,160,0.07,right,right,4.861160230000678,correct,1
Block 4: Monocular_Crowded,161,-0.09999999999999999,left,left,0.6585900480004057,correct,1
Block 4: Monocular_Crowded,162,-0.09,right,left,0.6073285530001158,false,0
Block 4: Monocular_Crowded,163,0.07,left,right,0.8299298900001304,false,0
Block 4: Monocular_Crowded,164,-0.09999999999999999,right,left,0.3643306880003365,false,0
Block 4: Monocular_Crowded,165,0.08,left,right,0.5567079939992254,false,0
Block 4: Monocular_Crowded,166,-0.10999999999999999,left,left,0.6479854270000942,correct,1
Block 4: Monocular_Crowded,167,-0.10999999999999999,left,left,0.6580035740007588,correct,1
Block 4: Monocular_Crowded,168,-0.09999999999999999,left,left,6.11807320600019,correct,1
Block 4: Monocular_Crowded,169,-0.09999999999999999,left,left,0.5665672929990251,correct,1
