label,trials,offset,keys,direction,response_time,accuracy,response_numeric
Block 1: Binocular_Crowded,0,0.206,right,right,0.6599928979999277,correct,1
Block 1: Binocular_Crowded,1,-0.22,left,left,0.3441917220002324,correct,1
Block 1: Binocular_Crowded,2,0.03,left,right,0.43524902299986934,false,0
Block 1: Binocular_Crowded,3,-0.03,left,left,0.6077270169998883,correct,1
Block 1: Binocular_Crowded,4,-0.11,left,left,0.44523318199981077,correct,1
Block 1: Binocular_Crowded,5,0.16,right,right,0.2836390859997664,correct,1
Block 1: Binocular_Crowded,6,-0.22,left,left,0.2937840590002452,correct,1
Block 1: Binocular_Crowded,7,-0.17,left,left,0.32373623200010115,correct,1
Block 1: Binocular_Crowded,8,-0.206,left,left,0.283111555999767,correct,1
Block 1: Binocular_Crowded,9,0.17,right,right,0.24338092599964511,correct,1
Block 1: Binocular_Crowded,10,0.22,right,right,0.3338303390000874,correct,1
Block 1: Binocular_Crowded,11,-0.19,left,left,0.25248928899964085,correct,1
Block 1: Binocular_Crowded,12,0.17,right,right,0.26307812999993985,correct,1
Block 1: Binocular_Crowded,13,0.03,right,right,0.3645708509998258,correct,1
Block 1: Binocular_Crowded,14,0.206,right,right,0.2529296580000846,correct,1
Block 1: Binocular_Crowded,15,0.12,right,right,0.23264918900031262,correct,1
Block 1: Binocular_Crowded,16,0.02,right,right,0.5878002989998095,correct,1
Block 1: Binocular_Crowded,17,0.08,left,right,0.3450906550001491,false,0
Block 1: Binocular_Crowded,18,0.043,right,right,0.3945808869998473,correct,1
Block 1: Binocular_Crowded,19,0.04,right,right,0.36447687899999437,correct,1
Block 1: Binocular_Crowded,20,-0.04,left,left,0.6989471649999359,correct,1
Block 1: Binocular_Crowded,21,0.2,right,right,0.2123402460001671,correct,1
Block 1: Binocular_Crowded,22,-0.09,left,left,0.2322674540000662,correct,1
Block 1: Binocular_Crowded,23,0.15,right,right,0.18195536899975195,correct,1
Block 1: Binocular_Crowded,24,-0.15,left,left,0.23278552000010677,correct,1
Block 1: Binocular_Crowded,25,0.02,right,right,0.37437318100000994,correct,1
Block 1: Binocular_Crowded,26,0.08,right,right,0.37449043100014023,correct,1
Block 1: Binocular_Crowded,27,-0.12,left,left,0.23256134800021755,correct,1
Block 1: Binocular_Crowded,28,-0.12,left,left,0.42477646699990146,correct,1
Block 1: Binocular_Crowded,29,0.13,right,right,0.23315173099990716,correct,1
Block 1: Binocular_Crowded,30,0.2,right,right,0.2732257729999219,correct,1
Block 1: Binocular_Crowded,31,0.09,right,right,0.3133702849995643,correct,1
Block 1: Binocular_Crowded,32,-0.01,left,left,0.5975063259998024,correct,1
Block 1: Binocular_Crowded,33,0.043,left,right,0.34407660399983797,false,0
Block 1: Binocular_Crowded,34,-0.16,left,left,0.4451764620002905,correct,1
Block 1: Binocular_Crowded,35,0.14,right,right,0.18195143799994185,correct,1
Block 1: Binocular_Crowded,36,-0.04,left,left,0.33359231000031286,correct,1
Block 1: Binocular_Crowded,37,0.21,right,right,0.19219532400029493,correct,1
Block 1: Binocular_Crowded,38,0.131,right,right,0.5064539149998382,correct,1
Block 1: Binocular_Crowded,39,0.11,right,right,0.4262017979999655,correct,1
Block 1: Binocular_Crowded,40,-0.21,left,left,0.21216024599971206,correct,1
Block 1: Binocular_Crowded,41,0.07,right,right,0.21253852499967252,correct,1
Block 1: Binocular_Crowded,42,0.18,right,right,0.22234069200021622,correct,1
Block 1: Binocular_Crowded,43,0.06,right,right,0.3952140619999227,correct,1
Block 1: Binocular_Crowded,44,0.15,right,right,0.333761068000058,correct,1
Block 1: Binocular_Crowded,45,-0.15,left,left,0.22206148400027814,correct,1
Block 1: Binocular_Crowded,46,0.1,right,right,0.38422755999999936,correct,1
Block 1: Binocular_Crowded,47,-0.043,left,left,0.30323939999971117,correct,1
Block 1: Binocular_Crowded,48,0.18,right,right,0.20227146900015214,correct,1
Block 1: Binocular_Crowded,49,0.13,right,right,0.20184130699999514,correct,1
Block 1: Binocular_Crowded,50,-0.206,left,left,0.22251768200021615,correct,1
Block 1: Binocular_Crowded,51,-0.03,left,left,0.26336882099985814,correct,1
Block 1: Binocular_Crowded,52,0.12,right,right,0.24265663400001358,correct,1
Block 1: Binocular_Crowded,53,-0.131,left,left,0.27317544900006396,correct,1
Block 1: Binocular_Crowded,54,-0.01,right,left,0.18206911500010392,false,0
Block 1: Binocular_Crowded,55,0.21,right,right,0.23282930499999566,correct,1
Block 1: Binocular_Crowded,56,-0.07,left,left,0.2228882459999113,correct,1
Block 1: Binocular_Crowded,57,0.035,right,right,0.252674933000435,correct,1
Block 1: Binocular_Crowded,58,-0.14,left,left,0.2526399130001664,correct,1
Block 1: Binocular_Crowded,59,-0.08,left,left,0.31340685900022436,correct,1
Block 1: Binocular_Crowded,60,0.1,right,right,0.18194025999991936,correct,1
Block 1: Binocular_Crowded,61,-0.21,left,left,0.22243658399975175,correct,1
Block 1: Binocular_Crowded,62,-0.02,left,left,0.31329868099965097,correct,1
Block 1: Binocular_Crowded,63,0.23,right,right,0.2021979010000905,correct,1
Block 1: Binocular_Crowded,64,0.19,right,right,0.3539234429999851,correct,1
Block 1: Binocular_Crowded,65,-0.11,left,left,0.18174950699994952,correct,1
Block 1: Binocular_Crowded,66,-0.08,left,left,0.2527440970002317,correct,1
Block 1: Binocular_Crowded,67,-0.18,left,left,0.26271074499982205,correct,1
Block 1: Binocular_Crowded,68,-0.2,left,left,0.1719148369998038,correct,1
Block 1: Binocular_Crowded,69,-0.05,left,left,0.2727427119998538,correct,1
Block 1: Binocular_Crowded,70,-0.06,left,left,0.44577303000005486,correct,1
Block 1: Binocular_Crowded,71,0.07,right,right,0.5569120749996728,correct,1
Block 1: Binocular_Crowded,72,0.05,left,right,0.739365891000034,false,0
Block 1: Binocular_Crowded,73,0.11,right,right,0.11108012199974837,correct,1
Block 1: Binocular_Crowded,74,-0.035,left,left,0.3036407329996109,correct,1
Block 1: Binocular_Crowded,75,-0.06,left,left,0.3348621549998825,correct,1
Block 1: Binocular_Crowded,76,0.04,right,right,0.4767440809996515,correct,1
Block 1: Binocular_Crowded,77,-0.14,left,left,0.23232575699967128,correct,1
Block 1: Binocular_Crowded,78,0.131,right,right,0.4252886799999942,correct,1
Block 1: Binocular_Crowded,79,-0.035,left,left,0.2024187020001591,correct,1
Block 1: Binocular_Crowded,80,-0.17,left,left,0.2831561379998675,correct,1
Block 1: Binocular_Crowded,81,-0.05,left,left,0.22229917300001034,correct,1
Block 1: Binocular_Crowded,82,-0.13,left,left,0.19190791499977422,correct,1
Block 1: Binocular_Crowded,83,-0.1,left,left,0.15140122599996175,correct,1
Block 1: Binocular_Crowded,84,0.23,right,right,0.24287833500011402,correct,1
Block 1: Binocular_Crowded,85,-0.2,left,left,0.2629464469996492,correct,1
Block 1: Binocular_Crowded,86,-0.13,left,left,0.27323093899985906,correct,1
Block 1: Binocular_Crowded,87,0.09,right,right,0.23275318500009234,correct,1
Block 1: Binocular_Crowded,88,0.22,right,right,0.25276058899999043,correct,1
Block 1: Binocular_Crowded,89,-0.043,left,left,0.32364797299987913,correct,1
Block 1: Binocular_Crowded,90,-0.1,left,left,0.2634726349997436,correct,1
Block 1: Binocular_Crowded,91,-0.07,left,left,0.6375747569995838,correct,1
Block 1: Binocular_Crowded,92,-0.23,left,left,0.24278383400042003,correct,1
Block 1: Binocular_Crowded,93,0.19,right,right,0.2830651519998355,correct,1
Block 1: Binocular_Crowded,94,0.035,left,right,0.24274222199983342,false,0
Block 1: Binocular_Crowded,95,-0.16,left,left,0.3644969630004198,correct,1
Block 1: Binocular_Crowded,96,-0.131,left,left,0.17172983299997213,correct,1
Block 1: Binocular_Crowded,97,-0.19,left,left,0.23235160100011854,correct,1
Block 1: Binocular_Crowded,98,-0.23,left,left,0.27368489700029386,correct,1
Block 1: Binocular_Crowded,99,-0.18,left,left,0.3749938790001579,correct,1
Block 1: Binocular_Crowded,100,0.06,right,right,0.24246518000018114,correct,1
Block 1: Binocular_Crowded,101,0.16,right,right,0.24302001100022608,correct,1
Block 1: Binocular_Crowded,102,0.01,right,right,0.455535270999917,correct,1
Block 1: Binocular_Crowded,103,0.05,right,right,0.2325389890002043,correct,1
Block 1: Binocular_Crowded,104,0.14,right,right,0.21228992900023513,correct,1
Block 1: Binocular_Crowded,105,-0.09,left,left,0.4457529589999467,correct,1
Block 1: Binocular_Crowded,106,-0.02,left,left,0.23262492300000304,correct,1
Block 1: Binocular_Crowded,107,0.01,left,right,0.3357242409997525,false,0
Block 2: Binocular_Standard,0,0.01,right,right,0.7195085260000269,correct,1
Block 2: Binocular_Standard,1,0.206,right,right,0.2018978060000336,correct,1
Block 2: Binocular_Standard,2,-0.04,left,left,0.3744071099999928,correct,1
Block 2: Binocular_Standard,3,-0.14,left,left,0.25297620899982576,correct,1
Block 2: Binocular_Standard,4,-0.2,left,left,0.36436170400020274,correct,1
Block 2: Binocular_Standard,5,-0.06,left,left,0.21221646899994084,correct,1
Block 2: Binocular_Standard,6,-0.14,left,left,0.33385197899997365,correct,1
Block 2: Binocular_Standard,7,-0.206,left,left,0.22240921599996,correct,1
Block 2: Binocular_Standard,8,-0.09,left,left,0.2425949240000591,correct,1
Block 2: Binocular_Standard,9,-0.043,left,left,0.7901949110000714,correct,1
Block 2: Binocular_Standard,10,0.07,right,right,0.18186835899996368,correct,1
Block 2: Binocular_Standard,11,0.035,right,right,0.30368887999975414,correct,1
Block 2: Binocular_Standard,12,-0.05,left,left,0.7608596669997496,correct,1
Block 2: Binocular_Standard,13,-0.035,left,left,0.6484203120003258,correct,1
Block 2: Binocular_Standard,14,0.09,right,right,0.4049599469999521,correct,1
Block 2: Binocular_Standard,15,0.05,right,right,0.21250821500007078,correct,1
Block 2: Binocular_Standard,16,-0.06,left,left,0.667934430999594,correct,1
Block 2: Binocular_Standard,17,-0.22,left,left,0.3747367870000744,correct,1
Block 2: Binocular_Standard,18,0.18,right,right,0.20264526700020724,correct,1
Block 2: Binocular_Standard,19,-0.16,left,left,0.4757836430003408,correct,1
Block 2: Binocular_Standard,20,-0.21,left,left,0.3847881739998229,correct,1
Block 2: Binocular_Standard,21,0.11,right,right,0.2127304330001607,correct,1
Block 2: Binocular_Standard,22,-0.01,right,left,0.14136961599979259,false,0
Block 2: Binocular_Standard,23,-0.03,left,left,0.5668455260001792,correct,1
Block 2: Binocular_Standard,24,-0.22,left,left,0.18243751499994687,correct,1
Block 2: Binocular_Standard,25,0.131,right,right,0.4153015410001899,correct,1
Block 2: Binocular_Standard,26,-0.19,left,left,0.24264584699994884,correct,1
Block 2: Binocular_Standard,27,-0.09,left,left,0.36424323299979733,correct,1
Block 2: Binocular_Standard,28,-0.043,left,left,0.4556357569999818,correct,1
Block 2: Binocular_Standard,29,-0.11,left,left,0.23268909399985205,correct,1
Block 2: Binocular_Standard,30,0.12,right,right,0.26330497399976593,correct,1
Block 2: Binocular_Standard,31,0.23,right,right,0.15155954800002291,correct,1
Block 2: Binocular_Standard,32,-0.206,left,left,0.2627993350001816,correct,1
Block 2: Binocular_Standard,33,-0.035,left,left,0.4250659539998196,correct,1
Block 2: Binocular_Standard,34,-0.07,left,left,0.23255159300015293,correct,1
Block 2: Binocular_Standard,35,0.043,right,right,0.3441853959998298,correct,1
Block 2: Binocular_Standard,36,0.12,right,right,0.1315391999996791,correct,1
Block 2: Binocular_Standard,37,-0.17,left,left,0.30354122900007496,correct,1
Block 2: Binocular_Standard,38,0.15,right,right,0.41534817900037524,correct,1
Block 2: Binocular_Standard,39,-0.23,left,left,0.49647466500027804,correct,1
Block 2: Binocular_Standard,40,0.08,right,right,0.384351431000141,correct,1
Block 2: Binocular_Standard,41,0.17,right,right,0.2932350490000317,correct,1
Block 2: Binocular_Standard,42,0.04,right,right,0.5669759769998564,correct,1
Block 2: Binocular_Standard,43,0.043,right,right,0.9725216990000263,correct,1
Block 2: Binocular_Standard,44,0.16,right,right,0.09095650300014313,correct,1
Block 2: Binocular_Standard,45,0.17,right,right,0.1114088639997135,correct,1
Block 2: Binocular_Standard,46,-0.23,right,left,0.08048384799985797,false,0
Block 2: Binocular_Standard,47,-0.131,left,left,0.36437352900020414,correct,1
Block 2: Binocular_Standard,48,-0.18,left,left,0.23269115599987344,correct,1
Block 2: Binocular_Standard,49,-0.2,left,left,0.212529725999957,correct,1
Block 2: Binocular_Standard,50,0.21,right,right,0.14181056200004605,correct,1
Block 2: Binocular_Standard,51,-0.18,left,left,0.22279483300007996,correct,1
Block 2: Binocular_Standard,52,-0.02,left,left,0.668024177999996,correct,1
Block 2: Binocular_Standard,53,0.14,right,right,0.40464419799991447,correct,1
Block 2: Binocular_Standard,54,-0.15,left,left,0.2326096150000012,correct,1
Block 2: Binocular_Standard,55,-0.03,left,left,0.32419699399997626,correct,1
Block 2: Binocular_Standard,56,0.19,right,right,0.19223353999996107,correct,1
Block 2: Binocular_Standard,57,-0.1,left,left,0.323777125000106,correct,1
Block 2: Binocular_Standard,58,0.1,right,right,0.3947787110000718,correct,1
Block 2: Binocular_Standard,59,-0.12,left,left,0.22238975299978847,correct,1
Block 2: Binocular_Standard,60,0.131,right,right,0.334865746000105,correct,1
Block 2: Binocular_Standard,61,-0.1,left,left,0.26281062099997143,correct,1
Block 2: Binocular_Standard,62,-0.08,left,left,0.32392618800031414,correct,1
Block 2: Binocular_Standard,63,0.09,right,right,0.31358129199998075,correct,1
Block 2: Binocular_Standard,64,0.035,right,right,0.27311502299971835,correct,1
Block 2: Binocular_Standard,65,-0.01,right,left,0.3740891789998386,false,0
Block 2: Binocular_Standard,66,-0.05,left,left,0.2933999280003263,correct,1
Block 2: Binocular_Standard,67,0.2,right,right,0.1514615699998103,correct,1
Block 2: Binocular_Standard,68,0.04,right,right,0.2835004640000989,correct,1
Block 2: Binocular_Standard,69,0.02,right,right,0.44547902099975545,correct,1
Block 2: Binocular_Standard,70,-0.16,left,left,0.21223890300007042,correct,1
Block 2: Binocular_Standard,71,-0.02,left,left,0.4858364070000789,correct,1
Block 2: Binocular_Standard,72,0.11,right,right,0.28294184000014866,correct,1
Block 2: Binocular_Standard,73,0.1,right,right,0.21233261599991238,correct,1
Block 2: Binocular_Standard,74,0.08,right,right,0.28397989499990217,correct,1
Block 2: Binocular_Standard,75,0.06,right,right,0.16187379199982388,correct,1
Block 2: Binocular_Standard,76,-0.13,left,left,0.29353467400005684,correct,1
Block 2: Binocular_Standard,77,0.02,right,right,0.5669105960000707,correct,1
Block 2: Binocular_Standard,78,0.14,right,right,0.29328432500005874,correct,1
Block 2: Binocular_Standard,79,-0.19,left,left,0.24290602500013847,correct,1
Block 2: Binocular_Standard,80,0.06,right,right,0.31377916799965533,correct,1
Block 2: Binocular_Standard,81,0.15,right,right,0.31398599799967997,correct,1
Block 2: Binocular_Standard,82,0.16,right,right,0.2731141080002999,correct,1
Block 2: Binocular_Standard,83,0.01,right,right,0.6069394250002915,correct,1
Block 2: Binocular_Standard,84,-0.07,left,left,0.44574421600009373,correct,1
Block 2: Binocular_Standard,85,-0.15,left,left,0.2536737379996339,correct,1
Block 2: Binocular_Standard,86,-0.08,left,left,0.2935715009998603,correct,1
Block 2: Binocular_Standard,87,-0.04,right,left,0.44551265800009787,false,0
Block 2: Binocular_Standard,88,0.2,right,right,0.2733747180000137,correct,1
Block 2: Binocular_Standard,89,-0.131,left,left,0.23252764400012893,correct,1
Block 2: Binocular_Standard,90,0.23,right,right,0.1920947690000503,correct,1
Block 2: Binocular_Standard,91,-0.12,left,left,0.19211705599991546,correct,1
Block 2: Binocular_Standard,92,-0.17,left,left,0.263068003999706,correct,1
Block 2: Binocular_Standard,93,0.22,right,right,0.7393112209997525,correct,1
Block 2: Binocular_Standard,94,0.18,right,right,0.3640135260002353,correct,1
Block 2: Binocular_Standard,95,0.206,right,right,0.7796953319998465,correct,1
Block 2: Binocular_Standard,96,0.21,right,right,0.2123008049998134,correct,1
Block 2: Binocular_Standard,97,0.13,right,right,0.32350489100008417,correct,1
Block 2: Binocular_Standard,98,-0.13,left,left,0.19220506800002113,correct,1
Block 2: Binocular_Standard,99,0.03,right,right,0.4146034430000327,correct,1
Block 2: Binocular_Standard,100,0.19,right,right,0.2325531530000262,correct,1
Block 2: Binocular_Standard,101,0.22,right,right,0.30370104699977674,correct,1
Block 2: Binocular_Standard,102,0.13,right,right,0.31376652600010857,correct,1
Block 2: Binocular_Standard,103,0.03,left,right,0.8714097480001328,false,0
Block 2: Binocular_Standard,104,0.05,right,right,0.15135870100039028,correct,1
Block 2: Binocular_Standard,105,0.07,right,right,0.26316341900019324,correct,1
Block 2: Binocular_Standard,106,-0.11,left,left,0.323704694999833,correct,1
Block 2: Binocular_Standard,107,-0.21,left,left,0.2734929439998268,correct,1
Block 3: Monocular_Crowded,0,0.19,right,right,0.5973030639997887,correct,1
Block 3: Monocular_Crowded,1,0.043,right,right,1.2973098269999355,correct,1
Block 3: Monocular_Crowded,2,0.131,right,right,0.2932414249999056,correct,1
Block 3: Monocular_Crowded,3,-0.206,left,left,0.3445622099998218,correct,1
Block 3: Monocular_Crowded,4,0.16,right,right,0.4767486569999164,correct,1
Block 3: Monocular_Crowded,5,-0.15,left,left,0.3338515099999313,correct,1
Block 3: Monocular_Crowded,6,0.04,left,right,0.26312484800018865,false,0
Block 3: Monocular_Crowded,7,-0.18,right,left,0.37431038599970634,false,0
Block 3: Monocular_Crowded,8,-0.17,left,left,0.26281467199987674,correct,1
Block 3: Monocular_Crowded,9,0.17,right,right,0.38416707499982294,correct,1
Block 3: Monocular_Crowded,10,0.12,right,right,0.50609507199988,correct,1
Block 3: Monocular_Crowded,11,0.01,left,right,0.444977346000087,false,0
Block 3: Monocular_Crowded,12,-0.12,right,left,0.1512893530002657,false,0
Block 3: Monocular_Crowded,13,0.13,right,right,0.23273189599967736,correct,1
Block 3: Monocular_Crowded,14,-0.01,right,left,0.9418411220003691,false,0
Block 3: Monocular_Crowded,15,-0.06,left,left,0.32349602100021,correct,1
Block 3: Monocular_Crowded,16,0.07,right,right,0.465305527000055,correct,1
Block 3: Monocular_Crowded,17,-0.06,right,left,0.557183943000382,false,0
Block 3: Monocular_Crowded,18,0.15,right,right,0.4861011289999624,correct,1
Block 3: Monocular_Crowded,19,-0.22,left,left,0.2225177469999835,correct,1
Block 3: Monocular_Crowded,20,-0.19,left,left,0.43585180599984596,correct,1
Block 3: Monocular_Crowded,21,-0.22,left,left,0.3237623249997341,correct,1
Block 3: Monocular_Crowded,22,0.14,right,right,0.344379649000075,correct,1
Block 3: Monocular_Crowded,23,0.01,left,right,0.48612543700028255,false,0
Block 3: Monocular_Crowded,24,-0.035,right,left,0.7087612119998994,false,0
Block 3: Monocular_Crowded,25,-0.16,left,left,0.2732640109998101,correct,1
Block 3: Monocular_Crowded,26,0.05,left,right,0.404833884999789,false,0
Block 3: Monocular_Crowded,27,0.16,right,right,0.27283680999971693,correct,1
Block 3: Monocular_Crowded,28,-0.08,right,left,0.40532226899995294,false,0
Block 3: Monocular_Crowded,29,0.21,right,right,0.4859687789999043,correct,1
Block 3: Monocular_Crowded,30,-0.2,left,left,0.273945077999997,correct,1
Block 3: Monocular_Crowded,31,-0.16,left,left,0.21207443999992392,correct,1
Block 3: Monocular_Crowded,32,-0.1,left,left,0.5375807489999715,correct,1
Block 3: Monocular_Crowded,33,-0.01,left,left,0.8214655940000739,correct,1
Block 3: Monocular_Crowded,34,0.06,right,right,0.3335543250000228,correct,1
Block 3: Monocular_Crowded,35,0.043,right,right,0.42499982299978,correct,1
Block 3: Monocular_Crowded,36,0.12,right,right,0.2835853579999821,correct,1
Block 3: Monocular_Crowded,37,-0.02,right,left,0.414827146999869,false,0
Block 3: Monocular_Crowded,38,-0.15,left,left,0.2128082269996412,correct,1
Block 3: Monocular_Crowded,39,0.1,right,right,0.3744750590003605,correct,1
Block 3: Monocular_Crowded,40,-0.04,left,left,0.3540416640003059,correct,1
Block 3: Monocular_Crowded,41,-0.1,left,left,0.5163837749996674,correct,1
Block 3: Monocular_Crowded,42,0.08,right,right,0.5576788710000073,correct,1
Block 3: Monocular_Crowded,43,0.035,right,right,0.4858119489999808,correct,1
Block 3: Monocular_Crowded,44,-0.09,right,left,0.4652576329999647,false,0
Block 3: Monocular_Crowded,45,-0.11,left,left,0.3147773129999223,correct,1
Block 3: Monocular_Crowded,46,-0.18,left,left,0.26293752100036727,correct,1
Block 3: Monocular_Crowded,47,-0.21,left,left,0.3035322340001585,correct,1
Block 3: Monocular_Crowded,48,-0.2,left,left,0.28453055299996777,correct,1
Block 3: Monocular_Crowded,49,-0.17,left,left,0.23314763700000185,correct,1
Block 3: Monocular_Crowded,50,0.03,right,right,0.7796787669999503,correct,1
Block 3: Monocular_Crowded,51,0.04,right,right,0.2224174530001619,correct,1
Block 3: Monocular_Crowded,52,0.15,right,right,0.2735042760000397,correct,1
Block 3: Monocular_Crowded,53,-0.08,left,left,0.5059283190003043,correct,1
Block 3: Monocular_Crowded,54,0.206,right,right,0.24309444400023494,correct,1
Block 3: Monocular_Crowded,55,0.09,right,right,0.161788525999782,correct,1
Block 3: Monocular_Crowded,56,0.19,right,right,0.31359821099977125,correct,1
Block 3: Monocular_Crowded,57,0.23,right,right,0.36389058500026294,correct,1
Block 3: Monocular_Crowded,58,0.09,right,right,0.3341412859999764,correct,1
Block 3: Monocular_Crowded,59,-0.21,left,left,0.3235833119997551,correct,1
Block 3: Monocular_Crowded,60,-0.04,right,left,0.47621538700013843,false,0
Block 3: Monocular_Crowded,61,-0.03,left,left,0.2023603370003002,correct,1
Block 3: Monocular_Crowded,62,0.2,right,right,0.2831325319998541,correct,1
Block 3: Monocular_Crowded,63,0.11,right,right,0.20223754900007407,correct,1
Block 3: Monocular_Crowded,64,0.07,right,right,0.25272373400002834,correct,1
Block 3: Monocular_Crowded,65,-0.043,right,left,0.4874071990002449,false,0
Block 3: Monocular_Crowded,66,0.17,right,right,0.252676669000266,correct,1
Block 3: Monocular_Crowded,67,-0.206,left,left,0.25294724400009727,correct,1
Block 3: Monocular_Crowded,68,-0.19,left,left,0.37449916700006725,correct,1
Block 3: Monocular_Crowded,69,0.1,right,right,0.22237104099986027,correct,1
Block 3: Monocular_Crowded,70,-0.035,left,left,0.28318329299963807,correct,1
Block 3: Monocular_Crowded,71,0.206,right,right,0.2124045760001536,correct,1
Block 3: Monocular_Crowded,72,-0.23,left,left,0.21226085499984038,correct,1
Block 3: Monocular_Crowded,73,-0.11,left,left,0.3641860349998751,correct,1
Block 3: Monocular_Crowded,74,-0.13,left,left,0.2527799720000985,correct,1
Block 3: Monocular_Crowded,75,0.2,right,right,0.3649219940002695,correct,1
Block 3: Monocular_Crowded,76,0.14,right,right,0.28302782799983106,correct,1
Block 3: Monocular_Crowded,77,-0.09,left,left,0.6786562120000781,correct,1
Block 3: Monocular_Crowded,78,-0.043,right,left,0.7794782650003071,false,0
Block 3: Monocular_Crowded,79,0.02,right,right,0.6077784140002223,correct,1
Block 3: Monocular_Crowded,80,-0.14,left,left,0.3133231890001298,correct,1
Block 3: Monocular_Crowded,81,0.03,left,right,0.9419883750001645,false,0
Block 3: Monocular_Crowded,82,-0.07,left,left,0.4561110469999221,correct,1
Block 3: Monocular_Crowded,83,-0.23,left,left,1.0327175510001325,correct,1
Block 3: Monocular_Crowded,84,0.05,right,right,0.5769412519998696,correct,1
Block 3: Monocular_Crowded,85,-0.131,left,left,0.22231282399980046,correct,1
Block 3: Monocular_Crowded,86,-0.02,left,left,1.1342610239998976,correct,1
Block 3: Monocular_Crowded,87,-0.05,left,left,0.5970275100003164,correct,1
Block 3: Monocular_Crowded,88,0.18,right,right,0.24278526799980682,correct,1
Block 3: Monocular_Crowded,89,0.22,right,right,0.5062944200003585,correct,1
Block 3: Monocular_Crowded,90,0.035,left,right,0.6993192609998005,false,0
Block 3: Monocular_Crowded,91,0.131,right,right,0.16152748100012104,correct,1
Block 3: Monocular_Crowded,92,-0.12,left,left,0.3241637440000886,correct,1
Block 3: Monocular_Crowded,93,0.13,right,right,0.22243926700002703,correct,1
Block 3: Monocular_Crowded,94,-0.13,left,left,0.3337747089999539,correct,1
Block 3: Monocular_Crowded,95,0.23,right,right,0.45528394600023603,correct,1
Block 3: Monocular_Crowded,96,-0.07,left,left,0.5571532399999342,correct,1
Block 3: Monocular_Crowded,97,-0.05,left,left,1.225727519999964,correct,1
Block 3: Monocular_Crowded,98,0.08,right,right,0.35459019099971556,correct,1
Block 3: Monocular_Crowded,99,-0.03,left,left,0.49607733500033646,correct,1
Block 3: Monocular_Crowded,100,0.02,left,right,0.3538934150001296,false,0
Block 3: Monocular_Crowded,101,-0.131,left,left,0.36423389199990197,correct,1
Block 3: Monocular_Crowded,102,0.11,right,right,0.17162036499985334,correct,1
Block 3: Monocular_Crowded,103,0.06,right,right,0.4355732660001195,correct,1
Block 3: Monocular_Crowded,104,0.22,right,right,0.4455921359999593,correct,1
Block 3: Monocular_Crowded,105,0.21,right,right,0.3251556069999424,correct,1
Block 3: Monocular_Crowded,106,0.18,right,right,0.5059711839999181,correct,1
Block 3: Monocular_Crowded,107,-0.14,left,left,0.23271557499992923,correct,1
Block 4: Monocular_Standard,0,0.043,left,right,1.1847902219997195,false,0
Block 4: Monocular_Standard,1,-0.13,right,left,0.1616279879999638,false,0
Block 4: Monocular_Standard,2,-0.14,left,left,0.24274568999999246,correct,1
Block 4: Monocular_Standard,3,0.12,right,right,0.14145547199996145,correct,1
Block 4: Monocular_Standard,4,0.05,right,right,0.161504437000076,correct,1
Block 4: Monocular_Standard,5,-0.06,right,left,0.15129087800005436,false,0
Block 4: Monocular_Standard,6,-0.11,left,left,0.2628976959999818,correct,1
Block 4: Monocular_Standard,7,-0.03,right,left,0.2121950350001498,false,0
Block 4: Monocular_Standard,8,0.12,right,right,0.4048992959997122,correct,1
Block 4: Monocular_Standard,9,0.02,right,right,0.3338268530001187,correct,1
Block 4: Monocular_Standard,10,0.08,right,right,0.3039212410003529,correct,1
Block 4: Monocular_Standard,11,0.17,right,right,0.27409729900000457,correct,1
Block 4: Monocular_Standard,12,0.06,right,right,0.2933965669999452,correct,1
Block 4: Monocular_Standard,13,0.13,right,right,0.35415943899988633,correct,1
Block 4: Monocular_Standard,14,-0.17,left,left,0.3437065699999948,correct,1
Block 4: Monocular_Standard,15,0.04,right,right,0.21215103099984844,correct,1
Block 4: Monocular_Standard,16,-0.07,left,left,0.2935815159999038,correct,1
Block 4: Monocular_Standard,17,-0.15,right,left,0.21248819199990976,false,0
Block 4: Monocular_Standard,18,-0.07,left,left,0.4045871870002884,correct,1
Block 4: Monocular_Standard,19,0.01,right,right,0.5367590659998314,correct,1
Block 4: Monocular_Standard,20,-0.02,left,left,0.6276430699999764,correct,1
Block 4: Monocular_Standard,21,-0.035,right,left,0.3438237020000088,false,0
Block 4: Monocular_Standard,22,-0.01,left,left,0.28337801399993623,correct,1
Block 4: Monocular_Standard,23,-0.11,left,left,0.294384854999862,correct,1
Block 4: Monocular_Standard,24,-0.2,left,left,0.2630139610000697,correct,1
Block 4: Monocular_Standard,25,0.16,right,right,0.24399868700038496,correct,1
Block 4: Monocular_Standard,26,0.1,right,right,0.25298415799989016,correct,1
Block 4: Monocular_Standard,27,-0.05,right,left,0.24275762600018425,false,0
Block 4: Monocular_Standard,28,-0.18,left,left,0.3136866170002577,correct,1
Block 4: Monocular_Standard,29,-0.15,left,left,0.2933283110000957,correct,1
Block 4: Monocular_Standard,30,0.18,right,right,0.2429200410001613,correct,1
Block 4: Monocular_Standard,31,-0.1,left,left,0.2936268220000784,correct,1
Block 4: Monocular_Standard,32,0.09,right,right,0.18171272900008262,correct,1
Block 4: Monocular_Standard,33,0.14,right,right,0.21220368399963263,correct,1
Block 4: Monocular_Standard,34,0.06,right,right,0.283217078999769,correct,1
Block 4: Monocular_Standard,35,-0.16,left,left,0.3748921899996276,correct,1
Block 4: Monocular_Standard,36,0.02,right,right,0.9625009380001757,correct,1
Block 4: Monocular_Standard,37,0.131,right,right,0.2831359199999497,correct,1
Block 4: Monocular_Standard,38,0.22,right,right,0.24264425800038225,correct,1
Block 4: Monocular_Standard,39,0.13,right,right,0.3138405170002443,correct,1
Block 4: Monocular_Standard,40,-0.22,left,left,0.41509881699994366,correct,1
Block 4: Monocular_Standard,41,-0.12,left,left,0.3130653670000356,correct,1
Block 4: Monocular_Standard,42,-0.21,left,left,0.18195243499985736,correct,1
Block 4: Monocular_Standard,43,0.03,right,right,0.46537955000030706,correct,1
Block 4: Monocular_Standard,44,-0.1,left,left,0.32355903799998487,correct,1
Block 4: Monocular_Standard,45,-0.09,right,left,0.30322140599992053,false,0
Block 4: Monocular_Standard,46,0.17,right,right,0.2832032070000423,correct,1
Block 4: Monocular_Standard,47,0.206,right,right,0.2630329440003152,correct,1
Block 4: Monocular_Standard,48,0.21,right,right,0.16164162399991255,correct,1
Block 4: Monocular_Standard,49,0.11,right,right,0.14134555700002238,correct,1
Block 4: Monocular_Standard,50,-0.19,left,left,0.27297431500028324,correct,1
Block 4: Monocular_Standard,51,0.131,right,right,0.44544824399963545,correct,1
Block 4: Monocular_Standard,52,-0.043,left,left,0.3033533620000526,correct,1
Block 4: Monocular_Standard,53,-0.08,left,left,0.3642784319999919,correct,1
Block 4: Monocular_Standard,54,0.11,right,right,0.33468074199981857,correct,1
Block 4: Monocular_Standard,55,-0.03,right,left,0.8405379010000615,false,0
Block 4: Monocular_Standard,56,0.23,right,right,0.24303234999979395,correct,1
Block 4: Monocular_Standard,57,0.03,left,right,0.4046870359998138,false,0
Block 4: Monocular_Standard,58,0.09,right,right,0.15146353299996917,correct,1
Block 4: Monocular_Standard,59,-0.206,left,left,0.2629172169999947,correct,1
Block 4: Monocular_Standard,60,-0.14,left,left,0.43573927399984314,correct,1
Block 4: Monocular_Standard,61,-0.12,left,left,0.3843732599998475,correct,1
Block 4: Monocular_Standard,62,0.08,right,right,0.24244582800019998,correct,1
Block 4: Monocular_Standard,63,0.16,right,right,0.20256020099986927,correct,1
Block 4: Monocular_Standard,64,-0.23,left,left,0.3539420910001354,correct,1
Block 4: Monocular_Standard,65,0.21,right,right,0.9024360950002119,correct,1
Block 4: Monocular_Standard,66,-0.04,right,left,0.7190443620002043,false,0
Block 4: Monocular_Standard,67,0.14,right,right,0.333686719999605,correct,1
Block 4: Monocular_Standard,68,0.2,right,right,0.22243672000013248,correct,1
Block 4: Monocular_Standard,69,-0.13,left,left,0.3846272900000258,correct,1
Block 4: Monocular_Standard,70,0.19,right,right,0.38430139499996585,correct,1
Block 4: Monocular_Standard,71,0.07,right,right,0.25306761700039715,correct,1
Block 4: Monocular_Standard,72,-0.02,left,left,0.6280101920001471,correct,1
Block 4: Monocular_Standard,73,0.035,right,right,0.7693210279999221,correct,1
Block 4: Monocular_Standard,74,-0.19,left,left,0.23288119499966342,correct,1
Block 4: Monocular_Standard,75,0.01,right,right,0.39478072100018835,correct,1
Block 4: Monocular_Standard,76,0.22,right,right,0.2024120450000737,correct,1
Block 4: Monocular_Standard,77,-0.21,left,left,0.32375904199989236,correct,1
Block 4: Monocular_Standard,78,0.2,right,right,0.2634791949999453,correct,1
Block 4: Monocular_Standard,79,-0.23,left,left,0.4051320389999091,correct,1
Block 4: Monocular_Standard,80,-0.06,left,left,0.42517932100008693,correct,1
Block 4: Monocular_Standard,81,0.18,right,right,0.39462946000003285,correct,1
Block 4: Monocular_Standard,82,-0.131,left,left,0.48626524600013,correct,1
Block 4: Monocular_Standard,83,0.04,right,right,0.2726686400001199,correct,1
Block 4: Monocular_Standard,84,0.23,right,right,0.1311003549999441,correct,1
Block 4: Monocular_Standard,85,0.07,right,right,0.19220211900028517,correct,1
Block 4: Monocular_Standard,86,-0.035,left,left,0.3845589000002292,correct,1
Block 4: Monocular_Standard,87,0.15,right,right,0.21230373400021563,correct,1
Block 4: Monocular_Standard,88,-0.131,left,left,0.27352376499993625,correct,1
Block 4: Monocular_Standard,89,0.1,right,right,0.1413804489998256,correct,1
Block 4: Monocular_Standard,90,0.05,right,right,0.3236514980003449,correct,1
Block 4: Monocular_Standard,91,-0.17,left,left,0.3340788059999795,correct,1
Block 4: Monocular_Standard,92,0.206,right,right,0.23306347000016103,correct,1
Block 4: Monocular_Standard,93,0.043,right,right,0.3341209160003018,correct,1
Block 4: Monocular_Standard,94,-0.2,left,left,0.31356672700030686,correct,1
Block 4: Monocular_Standard,95,-0.08,left,left,0.41530492000038066,correct,1
Block 4: Monocular_Standard,96,0.035,right,right,0.3333441340000718,correct,1
Block 4: Monocular_Standard,97,-0.05,left,left,0.4253299369997876,correct,1
Block 4: Monocular_Standard,98,0.19,right,right,0.13127695200000744,correct,1
Block 4: Monocular_Standard,99,-0.04,left,left,0.5261888850000105,correct,1
Block 4: Monocular_Standard,100,-0.22,left,left,0.36441911600013555,correct,1
Block 4: Monocular_Standard,101,-0.043,left,left,0.5462023509999199,correct,1
Block 4: Monocular_Standard,102,-0.01,left,left,0.33419976200002566,correct,1
Block 4: Monocular_Standard,103,0.15,right,right,0.24266126600014104,correct,1
Block 4: Monocular_Standard,104,-0.18,left,left,0.2531473969997933,correct,1
Block 4: Monocular_Standard,105,-0.09,left,left,0.18216661399992518,correct,1
Block 4: Monocular_Standard,106,-0.16,left,left,0.21231036900007894,correct,1
Block 4: Monocular_Standard,107,-0.206,left,left,0.23264607199962484,correct,1
