label,trials,offset,keys,direction,response_time,accuracy,response_numeric
Block 1: Binocular_Standard,0,0.2,right,right,1.0932387769998968,correct,1
Block 1: Binocular_Standard,1,0.2,right,right,0.4851471119991402,correct,1
Block 1: Binocular_Standard,2,-0.2,left,left,0.40488399300011224,correct,1
Block 1: Binocular_Standard,3,0.19,right,right,0.30328982500032,correct,1
Block 1: Binocular_Standard,4,-0.2,left,left,0.3132315759994526,correct,1
Block 1: Binocular_Standard,5,0.19,right,right,0.25290691899954254,correct,1
Block 1: Binocular_Standard,6,-0.19,left,left,0.29332930199961993,correct,1
Block 1: Binocular_Standard,7,0.18,right,right,0.22227687899976445,correct,1
Block 1: Binocular_Standard,8,-0.19,left,left,0.31341070300004503,correct,1
Block 1: Binocular_Standard,9,0.18,right,right,0.28306189500017354,correct,1
Block 1: Binocular_Standard,10,-0.18,left,left,0.2833100440002454,correct,1
Block 1: Binocular_Standard,11,-0.18,left,left,0.33360321700001805,correct,1
Block 1: Binocular_Standard,12,0.16999999999999998,right,right,0.191965304000405,correct,1
Block 1: Binocular_Standard,13,0.16999999999999998,right,right,0.2220334859994182,correct,1
Block 1: Binocular_Standard,14,-0.16999999999999998,left,left,0.23284282799977518,correct,1
Block 1: Binocular_Standard,15,-0.16999999999999998,left,left,0.21258068899987848,correct,1
Block 1: Binocular_Standard,16,-0.15999999999999998,left,left,0.37412894800036156,correct,1
Block 1: Binocular_Standard,17,0.15999999999999998,right,right,0.2527948300003118,correct,1
Block 1: Binocular_Standard,18,-0.15999999999999998,left,left,0.2223576750002394,correct,1
Block 1: Binocular_Standard,19,-0.14999999999999997,left,left,0.28330141399965214,correct,1
Block 1: Binocular_Standard,20,0.15999999999999998,right,right,0.21216657100012526,correct,1
Block 1: Binocular_Standard,21,0.14999999999999997,right,right,0.2739961730003415,correct,1
Block 1: Binocular_Standard,22,0.14999999999999997,right,right,0.23358084699975734,correct,1
Block 1: Binocular_Standard,23,0.13999999999999996,right,right,0.29312000299978536,correct,1
Block 1: Binocular_Standard,24,0.13999999999999996,right,right,0.27298739700017904,correct,1
Block 1: Binocular_Standard,25,0.12999999999999995,right,right,0.23285324599964952,correct,1
Block 1: Binocular_Standard,26,-0.14999999999999997,left,left,0.23265208399971016,correct,1
Block 1: Binocular_Standard,27,-0.13999999999999996,left,left,0.19196346100034134,correct,1
Block 1: Binocular_Standard,28,-0.13999999999999996,left,left,0.21229140800005553,correct,1
Block 1: Binocular_Standard,29,0.12999999999999995,right,right,0.23270345899982203,correct,1
Block 1: Binocular_Standard,30,-0.12999999999999995,left,left,0.18213207999997394,correct,1
Block 1: Binocular_Standard,31,-0.12999999999999995,left,left,0.3248911639993821,correct,1
Block 1: Binocular_Standard,32,0.11999999999999995,right,right,0.17182176300048013,correct,1
Block 1: Binocular_Standard,33,0.11999999999999995,right,right,0.2528179099999761,correct,1
Block 1: Binocular_Standard,34,-0.11999999999999995,left,left,0.15131373499934853,correct,1
Block 1: Binocular_Standard,35,0.10999999999999996,right,right,0.21230080499935866,correct,1
Block 1: Binocular_Standard,36,-0.11999999999999995,left,left,0.22270479100006924,correct,1
Block 1: Binocular_Standard,37,-0.10999999999999996,left,left,0.3234142429992062,correct,1
Block 1: Binocular_Standard,38,-0.10999999999999996,right,left,0.161436784000216,false,0
Block 1: Binocular_Standard,39,-0.11999999999999995,left,left,0.27322120999997423,correct,1
Block 1: Binocular_Standard,40,0.10999999999999996,right,right,0.2425048200002493,correct,1
Block 1: Binocular_Standard,41,0.09999999999999996,right,right,0.21238328300023568,correct,1
Block 1: Binocular_Standard,42,-0.11999999999999995,left,left,0.21242292199985968,correct,1
Block 1: Binocular_Standard,43,-0.10999999999999996,left,left,0.27272155599985126,correct,1
Block 1: Binocular_Standard,44,0.09999999999999996,right,right,0.2327113820001614,correct,1
Block 1: Binocular_Standard,45,0.08999999999999997,right,right,0.19208372100001725,correct,1
Block 1: Binocular_Standard,46,-0.10999999999999996,left,left,0.2324414650001927,correct,1
Block 1: Binocular_Standard,47,-0.09999999999999996,left,left,0.49583409400020173,correct,1
Block 1: Binocular_Standard,48,0.08999999999999997,right,right,0.25291587999981857,correct,1
Block 1: Binocular_Standard,49,-0.09999999999999996,left,left,0.6984840189998067,correct,1
Block 1: Binocular_Standard,50,-0.08999999999999997,left,left,0.283223684999939,correct,1
Block 1: Binocular_Standard,51,-0.08999999999999997,left,left,0.3643025620003755,correct,1
Block 1: Binocular_Standard,52,0.07999999999999997,right,right,0.21209797099982097,correct,1
Block 1: Binocular_Standard,53,0.07999999999999997,right,right,0.6172991570001614,correct,1
Block 1: Binocular_Standard,54,0.06999999999999998,right,right,0.4149729999999181,correct,1
Block 1: Binocular_Standard,55,0.06999999999999998,right,right,0.46494939100011834,correct,1
Block 1: Binocular_Standard,56,0.05999999999999998,right,right,0.31378271599987784,correct,1
Block 1: Binocular_Standard,57,-0.07999999999999997,left,left,0.3748321080001915,correct,1
Block 1: Binocular_Standard,58,0.05999999999999998,right,right,0.30329906299994036,correct,1
Block 1: Binocular_Standard,59,-0.07999999999999997,right,left,0.8399154429998816,false,0
Block 1: Binocular_Standard,60,-0.08999999999999997,left,left,0.3542098009993424,correct,1
Block 1: Binocular_Standard,61,-0.08999999999999997,left,left,0.516336544999831,correct,1
Block 1: Binocular_Standard,62,0.049999999999999975,right,right,0.3234854330003145,correct,1
Block 1: Binocular_Standard,63,-0.07999999999999997,left,left,0.2832479750004495,correct,1
Block 1: Binocular_Standard,64,-0.07999999999999997,left,left,0.32449075499971514,correct,1
Block 1: Binocular_Standard,65,-0.06999999999999998,left,left,0.35395033699933265,correct,1
Block 1: Binocular_Standard,66,-0.06999999999999998,left,left,0.3543296919997374,correct,1
Block 1: Binocular_Standard,67,-0.05999999999999998,left,left,1.083274103999429,correct,1
Block 1: Binocular_Standard,68,-0.05999999999999998,right,left,0.5363632949993189,false,0
Block 1: Binocular_Standard,69,-0.06999999999999998,left,left,0.2933333410001069,correct,1
Block 1: Binocular_Standard,70,-0.06999999999999998,left,left,0.5061860659998274,correct,1
Block 1: Binocular_Standard,71,0.049999999999999975,right,right,0.3439798449999216,correct,1
Block 1: Binocular_Standard,72,0.03999999999999997,right,right,0.2836674590007533,correct,1
Block 1: Binocular_Standard,73,0.03999999999999997,right,right,0.303370165999695,correct,1
Block 1: Binocular_Standard,74,-0.05999999999999998,left,left,0.27340043500043976,correct,1
Block 1: Binocular_Standard,75,0.02999999999999997,left,right,0.2831016250001994,false,0
Block 1: Binocular_Standard,76,-0.05999999999999998,left,left,0.3542175419997875,correct,1
Block 1: Binocular_Standard,77,0.03999999999999997,right,right,0.3234396279995053,correct,1
Block 1: Binocular_Standard,78,0.03999999999999997,right,right,0.40504974800023774,correct,1
Block 1: Binocular_Standard,79,0.02999999999999997,right,right,0.5274161739998817,correct,1
Block 1: Binocular_Standard,80,0.02999999999999997,right,right,0.3034908079998786,correct,1
Block 1: Binocular_Standard,81,0.01999999999999997,right,right,0.3851044840002942,correct,1
Block 1: Binocular_Standard,82,0.01999999999999997,right,right,0.23326491599982546,correct,1
Block 1: Binocular_Standard,83,-0.049999999999999975,left,left,0.29310092099967733,correct,1
Block 1: Binocular_Standard,84,0.009999999999999969,right,right,0.324067498999284,correct,1
Block 1: Binocular_Standard,85,-0.049999999999999975,left,left,0.3034692000001087,correct,1
Block 1: Binocular_Standard,86,-0.03999999999999997,left,left,0.4455771430002642,correct,1
Block 1: Binocular_Standard,87,-0.03999999999999997,left,left,0.324087466000492,correct,1
Block 1: Binocular_Standard,88,-0.02999999999999997,left,left,0.34392241700061277,correct,1
Block 1: Binocular_Standard,89,0.009999999999999969,right,right,0.42491587299991807,correct,1
Block 1: Binocular_Standard,90,-0.02999999999999997,left,left,0.34376348499972664,correct,1
Block 1: Binocular_Standard,91,-0.01999999999999997,left,left,0.3136092369995822,correct,1
Block 1: Binocular_Standard,92,-3.122502256758253e-17,right,right,0.49613784000030137,correct,1
Block 1: Binocular_Standard,93,-0.01999999999999997,left,left,0.35393249099979585,correct,1
Block 1: Binocular_Standard,94,-3.122502256758253e-17,left,right,0.3945123200001035,false,0
Block 1: Binocular_Standard,95,0.009999999999999969,right,right,0.3641664890001266,correct,1
Block 1: Binocular_Standard,96,0.009999999999999969,right,right,0.24269775799984927,correct,1
Block 1: Binocular_Standard,97,-0.009999999999999969,left,left,0.32357371599937323,correct,1
Block 1: Binocular_Standard,98,-3.122502256758253e-17,left,right,0.5059527540006457,false,0
Block 1: Binocular_Standard,99,0.009999999999999969,right,right,0.25260849599999347,correct,1
Block 1: Binocular_Standard,100,-0.009999999999999969,right,left,0.252694810000321,false,0
Block 1: Binocular_Standard,101,0.009999999999999969,right,right,0.23242993600069894,correct,1
Block 1: Binocular_Standard,102,-0.01999999999999997,left,left,0.4352808849998837,correct,1
Block 1: Binocular_Standard,103,-3.122502256758253e-17,left,right,0.27301434599939967,false,0
Block 1: Binocular_Standard,104,0.009999999999999969,right,right,0.4350804469995637,correct,1
Block 1: Binocular_Standard,105,0.009999999999999969,right,right,0.33409567199942103,correct,1
Block 1: Binocular_Standard,106,-3.122502256758253e-17,right,right,0.23237011099990923,correct,1
Block 1: Binocular_Standard,107,-0.01999999999999997,right,left,0.21216853400073887,false,0
Block 1: Binocular_Standard,108,-0.02999999999999997,right,left,0.25284937099968374,false,0
Block 1: Binocular_Standard,109,-3.122502256758253e-17,right,right,0.38425375899987557,correct,1
Block 1: Binocular_Standard,110,-0.03999999999999997,right,left,0.1313002899996718,false,0
Block 1: Binocular_Standard,111,-0.049999999999999975,left,left,0.3442273170003318,correct,1
Block 1: Binocular_Standard,112,-0.010000000000000031,right,right,0.40450627700010955,correct,1
Block 1: Binocular_Standard,113,-0.010000000000000031,right,right,0.3338861980000729,correct,1
Block 1: Binocular_Standard,114,-0.02000000000000003,left,right,0.48601985499954026,false,0
Block 1: Binocular_Standard,115,-0.049999999999999975,left,left,0.37425702400014416,correct,1
Block 1: Binocular_Standard,116,-0.03999999999999997,left,left,0.4453488549997928,correct,1
Block 1: Binocular_Standard,117,-0.010000000000000031,right,right,0.5674162229997819,correct,1
Block 1: Binocular_Standard,118,-0.010000000000000031,right,right,0.4253318119999676,correct,1
Block 1: Binocular_Standard,119,-0.03999999999999997,left,left,0.3739930049996474,correct,1
Block 2: Binocular_Crowded,0,-0.2,left,left,1.0221826899996813,correct,1
Block 2: Binocular_Crowded,1,0.2,left,right,0.4648797999998351,false,0
Block 2: Binocular_Crowded,2,-0.2,left,left,0.4148706960004347,correct,1
Block 2: Binocular_Crowded,3,0.21000000000000002,right,right,0.32395434899990505,correct,1
Block 2: Binocular_Crowded,4,-0.19,left,left,0.29405170799964253,correct,1
Block 2: Binocular_Crowded,5,-0.19,left,left,0.3842477219995999,correct,1
Block 2: Binocular_Crowded,6,0.21000000000000002,right,right,0.435033604999262,correct,1
Block 2: Binocular_Crowded,7,-0.18,left,left,0.38416060200052016,correct,1
Block 2: Binocular_Crowded,8,0.2,right,right,0.3443489330002194,correct,1
Block 2: Binocular_Crowded,9,0.2,right,right,0.2731206620001103,correct,1
Block 2: Binocular_Crowded,10,-0.18,left,left,0.36466210599974147,correct,1
Block 2: Binocular_Crowded,11,0.19,right,right,0.3439245130002746,correct,1
Block 2: Binocular_Crowded,12,0.19,right,right,0.33392930000081833,correct,1
Block 2: Binocular_Crowded,13,-0.16999999999999998,left,left,0.3443302420000691,correct,1
Block 2: Binocular_Crowded,14,-0.16999999999999998,left,left,0.2831847689994902,correct,1
Block 2: Binocular_Crowded,15,0.18,right,right,0.32391478000045026,correct,1
Block 2: Binocular_Crowded,16,-0.15999999999999998,left,left,0.36475797799994325,correct,1
Block 2: Binocular_Crowded,17,-0.15999999999999998,left,left,0.48545831900082703,correct,1
Block 2: Binocular_Crowded,18,-0.14999999999999997,left,left,0.40474467999956687,correct,1
Block 2: Binocular_Crowded,19,0.18,right,right,0.3641053950004789,correct,1
Block 2: Binocular_Crowded,20,-0.14999999999999997,left,left,0.37432764200002566,correct,1
Block 2: Binocular_Crowded,21,0.16999999999999998,right,right,0.37458256899935805,correct,1
Block 2: Binocular_Crowded,22,0.16999999999999998,right,right,0.4048501609995583,correct,1
Block 2: Binocular_Crowded,23,0.15999999999999998,right,right,0.35424671600048896,correct,1
Block 2: Binocular_Crowded,24,0.15999999999999998,right,right,0.3639801399995122,correct,1
Block 2: Binocular_Crowded,25,0.14999999999999997,right,right,0.31369401500069216,correct,1
Block 2: Binocular_Crowded,26,0.14999999999999997,right,right,0.32355596399975184,correct,1
Block 2: Binocular_Crowded,27,-0.13999999999999996,right,left,0.30354771299971617,false,0
Block 2: Binocular_Crowded,28,-0.14999999999999997,left,left,0.5163808240004073,correct,1
Block 2: Binocular_Crowded,29,0.13999999999999996,right,right,0.28297089300031075,correct,1
Block 2: Binocular_Crowded,30,0.13999999999999996,right,right,0.3133652480000819,correct,1
Block 2: Binocular_Crowded,31,0.12999999999999995,right,right,0.4252218219990027,correct,1
Block 2: Binocular_Crowded,32,-0.14999999999999997,left,left,0.3448230079993664,correct,1
Block 2: Binocular_Crowded,33,-0.13999999999999996,left,left,0.28309059899947897,correct,1
Block 2: Binocular_Crowded,34,-0.13999999999999996,left,left,0.3438416499993764,correct,1
Block 2: Binocular_Crowded,35,-0.12999999999999995,left,left,0.36412148000090383,correct,1
Block 2: Binocular_Crowded,36,0.12999999999999995,right,right,0.3436574819988891,correct,1
Block 2: Binocular_Crowded,37,-0.12999999999999995,left,left,0.6679125229984493,correct,1
Block 2: Binocular_Crowded,38,0.11999999999999995,right,right,0.3743600450015947,correct,1
Block 2: Binocular_Crowded,39,0.11999999999999995,right,right,0.4251341010003671,correct,1
Block 2: Binocular_Crowded,40,0.10999999999999996,left,right,0.39471803099877434,false,0
Block 2: Binocular_Crowded,41,-0.11999999999999995,left,left,0.37421627399999124,correct,1
Block 2: Binocular_Crowded,42,0.11999999999999995,right,right,0.4048521240001719,correct,1
Block 2: Binocular_Crowded,43,0.11999999999999995,right,right,0.3741936810001789,correct,1
Block 2: Binocular_Crowded,44,0.10999999999999996,right,right,0.38445260300068185,correct,1
Block 2: Binocular_Crowded,45,0.10999999999999996,right,right,0.3742452639999101,correct,1
Block 2: Binocular_Crowded,46,-0.11999999999999995,left,left,0.3843640930008405,correct,1
Block 2: Binocular_Crowded,47,-0.10999999999999996,left,left,0.5262000610000541,correct,1
Block 2: Binocular_Crowded,48,0.09999999999999996,right,right,0.29319187500004773,correct,1
Block 2: Binocular_Crowded,49,0.09999999999999996,right,right,0.38533626800017373,correct,1
Block 2: Binocular_Crowded,50,-0.10999999999999996,left,left,0.4453351379997912,correct,1
Block 2: Binocular_Crowded,51,0.08999999999999997,right,right,0.3540236589997221,correct,1
Block 2: Binocular_Crowded,52,-0.09999999999999996,left,left,0.4448497949997545,correct,1
Block 2: Binocular_Crowded,53,-0.09999999999999996,left,left,0.3642295989993727,correct,1
Block 2: Binocular_Crowded,54,0.08999999999999997,right,right,0.3541314250014693,correct,1
Block 2: Binocular_Crowded,55,0.07999999999999997,right,right,0.36436279000008653,correct,1
Block 2: Binocular_Crowded,56,-0.08999999999999997,left,left,0.4957278050005698,correct,1
Block 2: Binocular_Crowded,57,0.07999999999999997,right,right,0.35375102699981653,correct,1
Block 2: Binocular_Crowded,58,-0.08999999999999997,left,left,0.3033575669996935,correct,1
Block 2: Binocular_Crowded,59,0.06999999999999998,right,right,0.3944876909990853,correct,1
Block 2: Binocular_Crowded,60,-0.07999999999999997,left,left,0.4145193559998006,correct,1
Block 2: Binocular_Crowded,61,-0.07999999999999997,left,left,0.5768003030007094,correct,1
Block 2: Binocular_Crowded,62,0.06999999999999998,right,right,0.34391992300152197,correct,1
Block 2: Binocular_Crowded,63,0.05999999999999998,right,right,0.5464724129997194,correct,1
Block 2: Binocular_Crowded,64,-0.06999999999999998,left,left,0.32350690299972484,correct,1
Block 2: Binocular_Crowded,65,0.05999999999999998,right,right,0.3234311729993351,correct,1
Block 2: Binocular_Crowded,66,0.049999999999999975,right,right,0.36410966099902,correct,1
Block 2: Binocular_Crowded,67,-0.06999999999999998,right,left,0.434731102999649,false,0
Block 2: Binocular_Crowded,68,-0.07999999999999997,left,left,0.3944420349998836,correct,1
Block 2: Binocular_Crowded,69,-0.07999999999999997,left,left,0.6069119000003411,correct,1
Block 2: Binocular_Crowded,70,-0.06999999999999998,left,left,0.4651793089997227,correct,1
Block 2: Binocular_Crowded,71,0.049999999999999975,right,right,0.4450956960008625,correct,1
Block 2: Binocular_Crowded,72,-0.06999999999999998,left,left,0.5060317360002955,correct,1
Block 2: Binocular_Crowded,73,-0.05999999999999998,left,left,0.5976485360006336,correct,1
Block 2: Binocular_Crowded,74,-0.05999999999999998,left,left,0.6373488940007519,correct,1
Block 2: Binocular_Crowded,75,0.03999999999999997,left,right,0.36398840000038035,false,0
Block 2: Binocular_Crowded,76,0.049999999999999975,right,right,0.27316376000089804,correct,1
Block 2: Binocular_Crowded,77,-0.049999999999999975,left,left,0.4049427749996539,correct,1
Block 2: Binocular_Crowded,78,-0.049999999999999975,left,left,0.4146238869998342,correct,1
Block 2: Binocular_Crowded,79,0.049999999999999975,right,right,0.3854154689997813,correct,1
Block 2: Binocular_Crowded,80,0.03999999999999997,right,right,0.5565338550004526,correct,1
Block 2: Binocular_Crowded,81,-0.03999999999999997,left,left,0.3537284340000042,correct,1
Block 2: Binocular_Crowded,82,0.03999999999999997,right,right,0.3034474409996619,correct,1
Block 2: Binocular_Crowded,83,0.02999999999999997,right,right,0.3546687359994394,correct,1
Block 2: Binocular_Crowded,84,0.02999999999999997,right,right,0.3843115580002632,correct,1
Block 2: Binocular_Crowded,85,0.01999999999999997,right,right,0.3236703259990463,correct,1
Block 2: Binocular_Crowded,86,-0.03999999999999997,left,left,0.35408380499939085,correct,1
Block 2: Binocular_Crowded,87,0.01999999999999997,right,right,0.3238919969990093,correct,1
Block 2: Binocular_Crowded,88,-0.02999999999999997,right,left,0.2935024149992387,false,0
Block 2: Binocular_Crowded,89,-0.03999999999999997,left,left,0.5062983560001157,correct,1
Block 2: Binocular_Crowded,90,-0.03999999999999997,left,left,0.464933976998509,correct,1
Block 2: Binocular_Crowded,91,0.009999999999999969,right,right,0.4251203980002174,correct,1
Block 2: Binocular_Crowded,92,0.009999999999999969,right,right,0.46589104600025166,correct,1
Block 2: Binocular_Crowded,93,-3.122502256758253e-17,right,right,0.3947765030006849,correct,1
Block 2: Binocular_Crowded,94,-0.02999999999999997,left,left,0.46644489000027534,correct,1
Block 2: Binocular_Crowded,95,-3.122502256758253e-17,right,right,0.3848863090006489,correct,1
Block 2: Binocular_Crowded,96,-0.010000000000000031,right,right,0.374362366999776,correct,1
Block 2: Binocular_Crowded,97,-0.010000000000000031,right,right,0.42592205999972066,correct,1
Block 2: Binocular_Crowded,98,-0.02999999999999997,left,left,0.3239518210011738,correct,1
Block 2: Binocular_Crowded,99,-0.01999999999999997,left,left,0.6581039310003689,correct,1
Block 2: Binocular_Crowded,100,-0.01999999999999997,right,left,0.33375938499921176,false,0
Block 2: Binocular_Crowded,101,-0.02999999999999997,left,left,0.39426825100053975,correct,1
Block 2: Binocular_Crowded,102,-0.02000000000000003,right,right,0.37442902700058767,correct,1
Block 2: Binocular_Crowded,103,-0.02000000000000003,right,right,0.33396504600023036,correct,1
Block 2: Binocular_Crowded,104,-0.02999999999999997,left,left,0.4857537059997412,correct,1
Block 2: Binocular_Crowded,105,-0.01999999999999997,left,left,0.5869410930008598,correct,1
Block 2: Binocular_Crowded,106,-0.01999999999999997,left,left,0.3641351059995941,correct,1
Block 2: Binocular_Crowded,107,-0.030000000000000034,left,right,0.4452175560018077,false,0
Block 2: Binocular_Crowded,108,-0.009999999999999969,left,left,0.4146069729995361,correct,1
Block 2: Binocular_Crowded,109,-0.009999999999999969,left,left,0.5465675750001537,correct,1
Block 2: Binocular_Crowded,110,-0.02000000000000003,left,right,0.41446075000021665,false,0
Block 2: Binocular_Crowded,111,3.122502256758253e-17,left,left,0.4548436449986184,correct,1
Block 2: Binocular_Crowded,112,-0.010000000000000031,right,right,0.47608302800108504,correct,1
Block 2: Binocular_Crowded,113,3.122502256758253e-17,right,left,0.49573386600059166,false,0
Block 2: Binocular_Crowded,114,-0.009999999999999969,right,left,0.4954836550004984,false,0
Block 2: Binocular_Crowded,115,-0.010000000000000031,right,right,0.5765865060002398,correct,1
Block 2: Binocular_Crowded,116,-0.01999999999999997,left,left,0.6476357610008563,correct,1
Block 2: Binocular_Crowded,117,-0.01999999999999997,left,left,0.3942988709986821,correct,1
Block 2: Binocular_Crowded,118,-0.009999999999999969,right,left,0.4854382680005074,false,0
Block 2: Binocular_Crowded,119,-0.02000000000000003,right,right,0.4144965069990576,correct,1
Block 3: Monocular_Standard,0,-0.2,left,left,1.8027634639984171,correct,1
Block 3: Monocular_Standard,1,0.2,right,right,0.3337068540004111,correct,1
Block 3: Monocular_Standard,2,-0.2,left,left,0.36460051799986104,correct,1
Block 3: Monocular_Standard,3,0.2,right,right,0.29325806599990756,correct,1
Block 3: Monocular_Standard,4,0.19,right,right,0.3240237589998287,correct,1
Block 3: Monocular_Standard,5,-0.19,left,left,0.36387486700004956,correct,1
Block 3: Monocular_Standard,6,0.19,right,right,0.3336389619998954,correct,1
Block 3: Monocular_Standard,7,0.18,right,right,0.27311349600131507,correct,1
Block 3: Monocular_Standard,8,-0.19,left,left,0.19177470599970547,correct,1
Block 3: Monocular_Standard,9,-0.18,left,left,0.2121371220000583,correct,1
Block 3: Monocular_Standard,10,-0.18,left,left,0.1822255850001966,correct,1
Block 3: Monocular_Standard,11,-0.16999999999999998,left,left,0.2626387939999404,correct,1
Block 3: Monocular_Standard,12,0.18,right,right,0.23248578699895006,correct,1
Block 3: Monocular_Standard,13,-0.16999999999999998,left,left,0.21256733599875588,correct,1
Block 3: Monocular_Standard,14,-0.15999999999999998,left,left,0.2830438099990715,correct,1
Block 3: Monocular_Standard,15,0.16999999999999998,right,right,0.16192015599881415,correct,1
Block 3: Monocular_Standard,16,-0.15999999999999998,left,left,0.21244733299863583,correct,1
Block 3: Monocular_Standard,17,0.16999999999999998,right,right,0.21287861199925828,correct,1
Block 3: Monocular_Standard,18,-0.14999999999999997,left,left,0.20246346100066148,correct,1
Block 3: Monocular_Standard,19,-0.14999999999999997,left,left,0.3845071989999269,correct,1
Block 3: Monocular_Standard,20,0.15999999999999998,right,right,0.27310637600021437,correct,1
Block 3: Monocular_Standard,21,-0.13999999999999996,left,left,0.12137565899865876,correct,1
Block 3: Monocular_Standard,22,0.15999999999999998,right,right,0.18178607600020769,correct,1
Block 3: Monocular_Standard,23,-0.13999999999999996,left,left,0.1108772579991637,correct,1
Block 3: Monocular_Standard,24,0.14999999999999997,right,right,0.11085295199882239,correct,1
Block 3: Monocular_Standard,25,0.14999999999999997,left,right,0.09066980600073293,false,0
Block 3: Monocular_Standard,26,-0.12999999999999995,left,left,0.3441006400007609,correct,1
Block 3: Monocular_Standard,27,0.15999999999999998,right,right,0.23302731500007212,correct,1
Block 3: Monocular_Standard,28,-0.12999999999999995,left,left,0.212699440000506,correct,1
Block 3: Monocular_Standard,29,-0.11999999999999995,left,left,0.36404693400072574,correct,1
Block 3: Monocular_Standard,30,-0.11999999999999995,left,left,0.3235958880013641,correct,1
Block 3: Monocular_Standard,31,-0.10999999999999996,right,left,0.262635737999517,false,0
Block 3: Monocular_Standard,32,0.15999999999999998,right,right,0.2731572619995859,correct,1
Block 3: Monocular_Standard,33,0.14999999999999997,right,right,0.3849566999997478,correct,1
Block 3: Monocular_Standard,34,0.14999999999999997,right,right,0.5061028230011289,correct,1
Block 3: Monocular_Standard,35,0.13999999999999996,right,right,0.4550087509996956,correct,1
Block 3: Monocular_Standard,36,0.13999999999999996,right,right,0.4252946469987364,correct,1
Block 3: Monocular_Standard,37,-0.11999999999999995,left,left,0.4050829600000725,correct,1
Block 3: Monocular_Standard,38,-0.11999999999999995,left,left,0.4647990960002062,correct,1
Block 3: Monocular_Standard,39,0.12999999999999995,right,right,0.4958788879994245,correct,1
Block 3: Monocular_Standard,40,-0.10999999999999996,left,left,0.43504877899977146,correct,1
Block 3: Monocular_Standard,41,0.12999999999999995,right,right,0.37385773500136565,correct,1
Block 3: Monocular_Standard,42,0.11999999999999995,right,right,0.4354498060001788,correct,1
Block 3: Monocular_Standard,43,0.11999999999999995,right,right,0.4347218929997325,correct,1
Block 3: Monocular_Standard,44,-0.10999999999999996,left,left,0.4552273999997851,correct,1
Block 3: Monocular_Standard,45,0.10999999999999996,right,right,0.36497593500098446,correct,1
Block 3: Monocular_Standard,46,-0.09999999999999996,left,left,0.39494682000076864,correct,1
Block 3: Monocular_Standard,47,-0.09999999999999996,left,left,0.3547255249995942,correct,1
Block 3: Monocular_Standard,48,0.10999999999999996,right,right,0.2626046919995133,correct,1
Block 3: Monocular_Standard,49,-0.08999999999999997,left,left,0.25273674100026255,correct,1
Block 3: Monocular_Standard,50,-0.08999999999999997,left,left,0.333880087999205,correct,1
Block 3: Monocular_Standard,51,0.09999999999999996,right,right,0.2831293799990817,correct,1
Block 3: Monocular_Standard,52,-0.07999999999999997,left,left,0.2832939489999262,correct,1
Block 3: Monocular_Standard,53,0.09999999999999996,right,right,0.29309931399984634,correct,1
Block 3: Monocular_Standard,54,0.08999999999999997,right,right,0.35374156099896936,correct,1
Block 3: Monocular_Standard,55,0.08999999999999997,right,right,0.24244866899971385,correct,1
Block 3: Monocular_Standard,56,0.07999999999999997,right,right,0.26306151499920816,correct,1
Block 3: Monocular_Standard,57,0.07999999999999997,right,right,0.2224766510007612,correct,1
Block 3: Monocular_Standard,58,-0.07999999999999997,left,left,0.30370321400005196,correct,1
Block 3: Monocular_Standard,59,-0.06999999999999998,left,left,0.6680748290000338,correct,1
Block 3: Monocular_Standard,60,-0.06999999999999998,left,left,0.3540194770012022,correct,1
Block 3: Monocular_Standard,61,-0.05999999999999998,left,left,0.526233268001306,correct,1
Block 3: Monocular_Standard,62,0.06999999999999998,right,right,0.37414016900038405,correct,1
Block 3: Monocular_Standard,63,0.06999999999999998,right,right,0.333983354999873,correct,1
Block 3: Monocular_Standard,64,-0.05999999999999998,right,left,0.41498735300046974,false,0
Block 3: Monocular_Standard,65,0.05999999999999998,right,right,0.31323174700082745,correct,1
Block 3: Monocular_Standard,66,0.05999999999999998,right,right,0.4354143059990747,correct,1
Block 3: Monocular_Standard,67,0.049999999999999975,right,right,0.37423598599889374,correct,1
Block 3: Monocular_Standard,68,0.049999999999999975,right,right,0.3443328220000694,correct,1
Block 3: Monocular_Standard,69,-0.06999999999999998,left,left,0.384105424000154,correct,1
Block 3: Monocular_Standard,70,0.03999999999999997,right,right,0.3237206920002791,correct,1
Block 3: Monocular_Standard,71,0.03999999999999997,right,right,0.32355290800114744,correct,1
Block 3: Monocular_Standard,72,0.02999999999999997,right,right,0.3541204600005585,correct,1
Block 3: Monocular_Standard,73,-0.06999999999999998,left,left,0.3439769389988214,correct,1
Block 3: Monocular_Standard,74,0.02999999999999997,right,right,0.3842594130001089,correct,1
Block 3: Monocular_Standard,75,0.01999999999999997,left,right,0.3853372119992855,false,0
Block 3: Monocular_Standard,76,-0.05999999999999998,left,left,0.40503286399871286,correct,1
Block 3: Monocular_Standard,77,0.02999999999999997,right,right,0.30349588499848323,correct,1
Block 3: Monocular_Standard,78,-0.05999999999999998,left,left,0.37443427500147664,correct,1
Block 3: Monocular_Standard,79,-0.049999999999999975,left,left,0.3739946389996476,correct,1
Block 3: Monocular_Standard,80,0.02999999999999997,right,right,0.42493092299991986,correct,1
Block 3: Monocular_Standard,81,0.01999999999999997,right,right,0.3640112079992832,correct,1
Block 3: Monocular_Standard,82,0.01999999999999997,right,right,0.3134135359996435,correct,1
Block 3: Monocular_Standard,83,-0.049999999999999975,left,left,0.33390946600047755,correct,1
Block 3: Monocular_Standard,84,-0.03999999999999997,left,left,0.47543155899984413,correct,1
Block 3: Monocular_Standard,85,-0.03999999999999997,left,left,0.4260675200002879,correct,1
Block 3: Monocular_Standard,86,-0.02999999999999997,left,left,0.6981943730006606,correct,1
Block 3: Monocular_Standard,87,-0.02999999999999997,left,left,0.647970838999754,correct,1
Block 3: Monocular_Standard,88,-0.01999999999999997,right,left,0.6375693140016665,false,0
Block 3: Monocular_Standard,89,-0.02999999999999997,left,left,0.414737844001138,correct,1
Block 3: Monocular_Standard,90,0.009999999999999969,left,right,0.414915393001138,false,0
Block 3: Monocular_Standard,91,0.01999999999999997,right,right,0.32386275399949227,correct,1
Block 3: Monocular_Standard,92,-0.02999999999999997,left,left,0.46521342000050936,correct,1
Block 3: Monocular_Standard,93,-0.01999999999999997,right,left,0.2930537470001582,false,0
Block 3: Monocular_Standard,94,0.01999999999999997,right,right,0.28325816899996425,correct,1
Block 3: Monocular_Standard,95,0.009999999999999969,right,right,0.2930274050013395,correct,1
Block 3: Monocular_Standard,96,-0.02999999999999997,right,left,0.33372664299895405,false,0
Block 3: Monocular_Standard,97,0.009999999999999969,right,right,0.3439695050001319,correct,1
Block 3: Monocular_Standard,98,-3.122502256758253e-17,right,right,0.4957088039991504,correct,1
Block 3: Monocular_Standard,99,-3.122502256758253e-17,right,right,0.274256108001282,correct,1
Block 3: Monocular_Standard,100,-0.010000000000000031,right,right,0.2840420909997192,correct,1
Block 3: Monocular_Standard,101,-0.03999999999999997,left,left,0.6072246630010341,correct,1
Block 3: Monocular_Standard,102,-0.03999999999999997,left,left,0.7388233460005722,correct,1
Block 3: Monocular_Standard,103,-0.010000000000000031,right,right,0.5464194790001784,correct,1
Block 3: Monocular_Standard,104,-0.02999999999999997,right,left,0.7894461529995169,false,0
Block 3: Monocular_Standard,105,-0.02000000000000003,right,right,0.34407889199974306,correct,1
Block 3: Monocular_Standard,106,-0.03999999999999997,right,left,0.5370805540005676,false,0
Block 3: Monocular_Standard,107,-0.049999999999999975,left,left,0.43495488299959106,correct,1
Block 3: Monocular_Standard,108,-0.02000000000000003,left,right,0.7185877580013766,false,0
Block 3: Monocular_Standard,109,-0.049999999999999975,left,left,0.445870981000553,correct,1
Block 3: Monocular_Standard,110,-0.03999999999999997,left,left,0.7495330570000078,correct,1
Block 3: Monocular_Standard,111,-0.010000000000000031,right,right,0.9513784289993055,correct,1
Block 3: Monocular_Standard,112,-0.010000000000000031,right,right,0.6475263659995107,correct,1
Block 3: Monocular_Standard,113,-0.03999999999999997,right,left,0.6382237319994601,false,0
Block 3: Monocular_Standard,114,-0.049999999999999975,left,left,0.6981467940004222,correct,1
Block 3: Monocular_Standard,115,-0.049999999999999975,left,left,0.4864912840002944,correct,1
Block 3: Monocular_Standard,116,-0.03999999999999997,left,left,0.5261799109994172,correct,1
Block 3: Monocular_Standard,117,-0.03999999999999997,left,left,0.496009131999017,correct,1
Block 3: Monocular_Standard,118,-0.02000000000000003,left,right,0.4958317260006879,false,0
Block 3: Monocular_Standard,119,-0.010000000000000031,right,right,0.495444137000959,correct,1
Block 4: Monocular_Crowded,0,-0.2,left,left,0.6275478980005573,correct,1
Block 4: Monocular_Crowded,1,0.2,right,right,0.49603753500014136,correct,1
Block 4: Monocular_Crowded,2,0.2,right,right,0.44533439299993915,correct,1
Block 4: Monocular_Crowded,3,-0.2,left,left,0.42478761299935286,correct,1
Block 4: Monocular_Crowded,4,0.19,right,right,0.5062146479995135,correct,1
Block 4: Monocular_Crowded,5,0.19,right,right,0.41471650800122006,correct,1
Block 4: Monocular_Crowded,6,-0.19,left,left,0.5464598430007754,correct,1
Block 4: Monocular_Crowded,7,0.18,right,right,0.47629240400056005,correct,1
Block 4: Monocular_Crowded,8,0.18,right,right,0.5768010519987001,correct,1
Block 4: Monocular_Crowded,9,0.16999999999999998,right,right,0.5272341029995005,correct,1
Block 4: Monocular_Crowded,10,-0.19,left,left,0.6077096429999074,correct,1
Block 4: Monocular_Crowded,11,-0.18,left,left,0.44561529999919003,correct,1
Block 4: Monocular_Crowded,12,-0.18,left,left,0.3940765780007496,correct,1
Block 4: Monocular_Crowded,13,-0.16999999999999998,left,left,0.4044368119994033,correct,1
Block 4: Monocular_Crowded,14,0.16999999999999998,right,right,0.3740744730002916,correct,1
Block 4: Monocular_Crowded,15,0.15999999999999998,right,right,0.333900753999842,correct,1
Block 4: Monocular_Crowded,16,0.15999999999999998,right,right,0.3544124219988589,correct,1
Block 4: Monocular_Crowded,17,0.14999999999999997,right,right,0.3236993729988171,correct,1
Block 4: Monocular_Crowded,18,-0.16999999999999998,left,left,0.37433010899985675,correct,1
Block 4: Monocular_Crowded,19,-0.15999999999999998,left,left,0.40458310399844777,correct,1
Block 4: Monocular_Crowded,20,-0.15999999999999998,left,left,0.4045806980011548,correct,1
Block 4: Monocular_Crowded,21,-0.14999999999999997,left,left,0.30332152499977383,correct,1
Block 4: Monocular_Crowded,22,0.14999999999999997,right,right,0.32363352500033216,correct,1
Block 4: Monocular_Crowded,23,0.13999999999999996,right,right,0.2929785370015452,correct,1
Block 4: Monocular_Crowded,24,-0.14999999999999997,right,left,0.39482389200020407,false,0
Block 4: Monocular_Crowded,25,-0.15999999999999998,left,left,0.45529742300095677,correct,1
Block 4: Monocular_Crowded,26,-0.15999999999999998,left,left,0.48580306400072004,correct,1
Block 4: Monocular_Crowded,27,0.13999999999999996,right,right,0.3540074239990645,correct,1
Block 4: Monocular_Crowded,28,-0.14999999999999997,left,left,0.4040831930014974,correct,1
Block 4: Monocular_Crowded,29,0.12999999999999995,right,right,0.43500230599966017,correct,1
Block 4: Monocular_Crowded,30,0.12999999999999995,right,right,0.44517780500063964,correct,1
Block 4: Monocular_Crowded,31,-0.14999999999999997,left,left,0.5773312979999901,correct,1
Block 4: Monocular_Crowded,32,0.11999999999999995,right,right,0.4449981100005971,correct,1
Block 4: Monocular_Crowded,33,-0.13999999999999996,left,left,0.3553211010002997,correct,1
Block 4: Monocular_Crowded,34,-0.13999999999999996,left,left,0.3437299150009494,correct,1
Block 4: Monocular_Crowded,35,-0.12999999999999995,left,left,0.43506339399937133,correct,1
Block 4: Monocular_Crowded,36,0.11999999999999995,right,right,0.43505368899968744,correct,1
Block 4: Monocular_Crowded,37,0.10999999999999996,right,right,0.4255955120006547,correct,1
Block 4: Monocular_Crowded,38,0.10999999999999996,right,right,0.3541567119991669,correct,1
Block 4: Monocular_Crowded,39,-0.12999999999999995,left,left,0.45493613600046956,correct,1
Block 4: Monocular_Crowded,40,0.09999999999999996,right,right,0.3739532679992408,correct,1
Block 4: Monocular_Crowded,41,-0.11999999999999995,left,left,0.3544595390012546,correct,1
Block 4: Monocular_Crowded,42,0.09999999999999996,right,right,0.2931718460004049,correct,1
Block 4: Monocular_Crowded,43,0.08999999999999997,right,right,0.3336764639989269,correct,1
Block 4: Monocular_Crowded,44,-0.11999999999999995,left,left,0.2728799569995317,correct,1
Block 4: Monocular_Crowded,45,0.08999999999999997,right,right,0.24277188100131752,correct,1
Block 4: Monocular_Crowded,46,0.07999999999999997,right,right,0.38465064199954213,correct,1
Block 4: Monocular_Crowded,47,-0.10999999999999996,left,left,0.2933728850002808,correct,1
Block 4: Monocular_Crowded,48,0.07999999999999997,right,right,0.2525652379990788,correct,1
Block 4: Monocular_Crowded,49,-0.10999999999999996,left,left,0.33384887399915897,correct,1
Block 4: Monocular_Crowded,50,0.06999999999999998,right,right,0.2829133949999232,correct,1
Block 4: Monocular_Crowded,51,-0.09999999999999996,left,left,0.3036181259994919,correct,1
Block 4: Monocular_Crowded,52,-0.09999999999999996,left,left,0.2529556680001406,correct,1
Block 4: Monocular_Crowded,53,0.06999999999999998,right,right,0.3338621439997951,correct,1
Block 4: Monocular_Crowded,54,0.05999999999999998,right,right,0.3944997010003135,correct,1
Block 4: Monocular_Crowded,55,0.05999999999999998,right,right,0.36404985199988005,correct,1
Block 4: Monocular_Crowded,56,-0.08999999999999997,left,left,0.3238750340005936,correct,1
Block 4: Monocular_Crowded,57,-0.08999999999999997,left,left,0.30305763099931937,correct,1
Block 4: Monocular_Crowded,58,-0.07999999999999997,left,left,0.19279181999991124,correct,1
Block 4: Monocular_Crowded,59,-0.07999999999999997,left,left,0.24255006699968362,correct,1
Block 4: Monocular_Crowded,60,0.049999999999999975,right,right,0.40469998699882126,correct,1
Block 4: Monocular_Crowded,61,-0.06999999999999998,left,left,0.23250943399943935,correct,1
Block 4: Monocular_Crowded,62,-0.06999999999999998,left,left,0.26388429399958113,correct,1
Block 4: Monocular_Crowded,63,0.049999999999999975,left,right,0.25330680899969593,false,0
Block 4: Monocular_Crowded,64,-0.05999999999999998,left,left,0.38534850199903303,correct,1
Block 4: Monocular_Crowded,65,-0.05999999999999998,left,left,0.42550506799852883,correct,1
Block 4: Monocular_Crowded,66,-0.049999999999999975,left,left,0.4150172070003464,correct,1
Block 4: Monocular_Crowded,67,0.05999999999999998,right,right,0.36429288900035317,correct,1
Block 4: Monocular_Crowded,68,0.05999999999999998,right,right,0.4046453350001684,correct,1
Block 4: Monocular_Crowded,69,0.049999999999999975,right,right,0.3649634120010887,correct,1
Block 4: Monocular_Crowded,70,0.049999999999999975,right,right,0.3540154700003768,correct,1
Block 4: Monocular_Crowded,71,0.03999999999999997,right,right,0.4353297339985147,correct,1
Block 4: Monocular_Crowded,72,0.03999999999999997,right,right,0.2837464660005935,correct,1
Block 4: Monocular_Crowded,73,0.02999999999999997,right,right,0.3335396809998201,correct,1
Block 4: Monocular_Crowded,74,-0.049999999999999975,right,left,0.2734199249989615,false,0
Block 4: Monocular_Crowded,75,0.02999999999999997,right,right,0.39456255299955956,correct,1
Block 4: Monocular_Crowded,76,0.01999999999999997,right,right,0.3032900210000662,correct,1
Block 4: Monocular_Crowded,77,-0.05999999999999998,left,left,0.46542767100072524,correct,1
Block 4: Monocular_Crowded,78,0.01999999999999997,left,right,0.3540566609990492,false,0
Block 4: Monocular_Crowded,79,-0.05999999999999998,right,left,0.2225198989999626,false,0
Block 4: Monocular_Crowded,80,0.02999999999999997,right,right,0.4550901160000649,correct,1
Block 4: Monocular_Crowded,81,-0.06999999999999998,left,left,0.3742430800011789,correct,1
Block 4: Monocular_Crowded,82,-0.06999999999999998,left,left,0.39462315200034936,correct,1
Block 4: Monocular_Crowded,83,-0.05999999999999998,left,left,0.38445502299873624,correct,1
Block 4: Monocular_Crowded,84,-0.05999999999999998,left,left,0.323591280999608,correct,1
Block 4: Monocular_Crowded,85,-0.049999999999999975,left,left,0.313801179998336,correct,1
Block 4: Monocular_Crowded,86,-0.049999999999999975,left,left,0.3437812780011882,correct,1
Block 4: Monocular_Crowded,87,0.02999999999999997,left,right,0.2627528770008212,false,0
Block 4: Monocular_Crowded,88,0.03999999999999997,right,right,0.5477955679998558,correct,1
Block 4: Monocular_Crowded,89,-0.03999999999999997,right,left,0.3439022960010334,false,0
Block 4: Monocular_Crowded,90,-0.049999999999999975,right,left,0.2933345020010165,false,0
Block 4: Monocular_Crowded,91,0.03999999999999997,left,right,0.33344671099985135,false,0
Block 4: Monocular_Crowded,92,-0.05999999999999998,left,left,0.49589902800107666,correct,1
Block 4: Monocular_Crowded,93,-0.05999999999999998,left,left,0.46546668599876284,correct,1
Block 4: Monocular_Crowded,94,-0.049999999999999975,left,left,0.3745717239999067,correct,1
Block 4: Monocular_Crowded,95,-0.049999999999999975,left,left,0.2932888750001439,correct,1
Block 4: Monocular_Crowded,96,-0.03999999999999997,left,left,0.3640518520005571,correct,1
Block 4: Monocular_Crowded,97,0.049999999999999975,left,right,0.2122549159994378,false,0
Block 4: Monocular_Crowded,98,-0.03999999999999997,left,left,0.3136880120000569,correct,1
Block 4: Monocular_Crowded,99,0.05999999999999998,right,right,0.4351880820013321,correct,1
Block 4: Monocular_Crowded,100,0.05999999999999998,right,right,0.22261802999855718,correct,1
Block 4: Monocular_Crowded,101,0.049999999999999975,right,right,0.22220497399939632,correct,1
Block 4: Monocular_Crowded,102,-0.02999999999999997,right,left,0.2630120390003867,false,0
Block 4: Monocular_Crowded,103,0.049999999999999975,right,right,0.293654893999701,correct,1
Block 4: Monocular_Crowded,104,0.03999999999999997,right,right,0.354398649000359,correct,1
Block 4: Monocular_Crowded,105,0.03999999999999997,right,right,0.24256385499938915,correct,1
Block 4: Monocular_Crowded,106,-0.03999999999999997,right,left,0.24285646500175062,false,0
Block 4: Monocular_Crowded,107,0.02999999999999997,right,right,0.8908975989997998,correct,1
Block 4: Monocular_Crowded,108,-0.049999999999999975,right,left,0.3643109650001861,false,0
Block 4: Monocular_Crowded,109,0.02999999999999997,right,right,0.4248903240004438,correct,1
Block 4: Monocular_Crowded,110,-0.05999999999999998,right,left,0.6175396850012476,false,0
Block 4: Monocular_Crowded,111,0.01999999999999997,right,right,0.3542261430011422,correct,1
Block 4: Monocular_Crowded,112,-0.06999999999999998,left,left,0.40449249999983294,correct,1
Block 4: Monocular_Crowded,113,0.01999999999999997,right,right,0.38429854700007127,correct,1
Block 4: Monocular_Crowded,114,0.009999999999999969,right,right,0.3643262540008436,correct,1
Block 4: Monocular_Crowded,115,-0.06999999999999998,left,left,0.4252670349997061,correct,1
Block 4: Monocular_Crowded,116,0.009999999999999969,right,right,0.3739097409998067,correct,1
Block 4: Monocular_Crowded,117,-0.05999999999999998,left,left,0.3843363699998008,correct,1
Block 4: Monocular_Crowded,118,-0.05999999999999998,left,left,0.4457132690004073,correct,1
Block 4: Monocular_Crowded,119,-3.122502256758253e-17,right,right,0.6579125370008114,correct,1
