label,trials,offset,keys,direction,response_time,accuracy,response_numeric
Block 1: Binocular_Standard,0,-0.15,left,left,0.9056138360001569,correct,1
Block 1: Binocular_Standard,1,0.15,right,right,0.5670420530000229,correct,1
Block 1: Binocular_Standard,2,0.15,right,right,0.6997118039998895,correct,1
Block 1: Binocular_Standard,3,0.13999999999999999,right,right,0.3541318110001157,correct,1
Block 1: Binocular_Standard,4,0.13999999999999999,right,right,0.3135563580003691,correct,1
Block 1: Binocular_Standard,5,-0.15,left,left,0.3846626419999666,correct,1
Block 1: Binocular_Standard,6,0.12999999999999998,right,right,0.4251343200003248,correct,1
Block 1: Binocular_Standard,7,0.12999999999999998,right,right,0.4657899539997743,correct,1
Block 1: Binocular_Standard,8,0.11999999999999998,right,right,0.425100675000067,correct,1
Block 1: Binocular_Standard,9,0.11999999999999998,right,right,0.5767688529999759,correct,1
Block 1: Binocular_Standard,10,0.10999999999999999,right,right,1.2959344549999514,correct,1
Block 1: Binocular_Standard,11,0.10999999999999999,right,right,0.5766342599999916,correct,1
Block 1: Binocular_Standard,12,0.09999999999999999,right,right,0.8091005290002613,correct,1
Block 1: Binocular_Standard,13,-0.13999999999999999,left,left,0.7285954139997557,correct,1
Block 1: Binocular_Standard,14,-0.13999999999999999,left,left,0.7191924499998095,correct,1
Block 1: Binocular_Standard,15,-0.12999999999999998,left,left,0.4756205349999618,correct,1
Block 1: Binocular_Standard,16,0.09999999999999999,right,right,0.41488299499997083,correct,1
Block 1: Binocular_Standard,17,0.09,right,right,0.24245966999978918,correct,1
Block 1: Binocular_Standard,18,0.09,right,right,0.4856535819999408,correct,1
Block 1: Binocular_Standard,19,0.08,right,right,0.2831876889999876,correct,1
Block 1: Binocular_Standard,20,-0.12999999999999998,left,left,0.4347069940004076,correct,1
Block 1: Binocular_Standard,21,-0.11999999999999998,left,left,0.3745538499997565,correct,1
Block 1: Binocular_Standard,22,-0.11999999999999998,right,left,0.3440332820000549,false,0
Block 1: Binocular_Standard,23,-0.12999999999999998,left,left,0.3643423079997774,correct,1
Block 1: Binocular_Standard,24,0.08,right,right,0.39460678700015706,correct,1
Block 1: Binocular_Standard,25,-0.12999999999999998,left,left,0.38472210300005827,correct,1
Block 1: Binocular_Standard,26,-0.11999999999999998,left,left,0.3236054159997366,correct,1
Block 1: Binocular_Standard,27,0.07,right,right,0.4554341919997569,correct,1
Block 1: Binocular_Standard,28,0.07,right,right,0.3946248110000852,correct,1
Block 1: Binocular_Standard,29,-0.11999999999999998,left,left,0.4349325590001172,correct,1
Block 1: Binocular_Standard,30,-0.10999999999999999,left,left,0.6076313700000355,correct,1
Block 1: Binocular_Standard,31,-0.10999999999999999,left,left,1.6610519699997894,correct,1
Block 1: Binocular_Standard,32,-0.09999999999999999,left,left,0.5464968179999232,correct,1
Block 1: Binocular_Standard,33,-0.09999999999999999,left,left,0.4657277729997986,correct,1
Block 1: Binocular_Standard,34,0.060000000000000005,right,right,0.29272297599982267,correct,1
Block 1: Binocular_Standard,35,-0.09,left,left,0.41481945299983636,correct,1
Block 1: Binocular_Standard,36,-0.09,left,left,0.24386463700011518,correct,1
Block 1: Binocular_Standard,37,0.060000000000000005,right,right,0.5879047029998219,correct,1
Block 1: Binocular_Standard,38,0.05,right,right,0.44513124400009474,correct,1
Block 1: Binocular_Standard,39,0.05,right,right,0.31372565999981816,correct,1
Block 1: Binocular_Standard,40,0.04,right,right,0.1919774520001738,correct,1
Block 1: Binocular_Standard,41,0.04,right,right,0.36406122100015637,correct,1
Block 1: Binocular_Standard,42,-0.08,left,left,0.40453811299994413,correct,1
Block 1: Binocular_Standard,43,-0.08,left,left,0.3840528240002641,correct,1
Block 1: Binocular_Standard,44,0.03,right,right,0.50584045100004,correct,1
Block 1: Binocular_Standard,45,-0.07,left,left,0.38469322799983274,correct,1
Block 1: Binocular_Standard,46,0.03,right,right,0.41520620899973437,correct,1
Block 1: Binocular_Standard,47,-0.07,left,left,0.3438662259995908,correct,1
Block 1: Binocular_Standard,48,0.019999999999999997,right,right,0.37446875100022226,correct,1
Block 1: Binocular_Standard,49,0.019999999999999997,right,right,0.4654064420001305,correct,1
Block 1: Binocular_Standard,50,-0.060000000000000005,left,left,0.44542716000023574,correct,1
Block 1: Binocular_Standard,51,0.009999999999999997,left,right,0.6075884299998506,false,0
Block 1: Binocular_Standard,52,-0.060000000000000005,left,left,0.5158561530001862,correct,1
Block 1: Binocular_Standard,53,-0.05,left,left,0.4351824340001258,correct,1
Block 1: Binocular_Standard,54,-0.05,left,left,0.5261225109998122,correct,1
Block 1: Binocular_Standard,55,0.019999999999999997,right,right,0.5664710860000923,correct,1
Block 1: Binocular_Standard,56,0.019999999999999997,right,right,0.4668334949997188,correct,1
Block 1: Binocular_Standard,57,0.009999999999999997,left,right,0.7090598740001042,false,0
Block 1: Binocular_Standard,58,-0.04,left,left,0.3847904879999078,correct,1
Block 1: Binocular_Standard,59,0.019999999999999997,right,right,0.3038483529999212,correct,1
Block 1: Binocular_Standard,60,-0.04,left,left,0.47495157599996674,correct,1
Block 1: Binocular_Standard,61,0.019999999999999997,right,right,0.5262835870003073,correct,1
Block 1: Binocular_Standard,62,-0.03,left,left,0.5564170080001531,correct,1
Block 1: Binocular_Standard,63,-0.03,left,left,0.7186094290000256,correct,1
Block 1: Binocular_Standard,64,0.009999999999999997,left,right,0.5770585719997143,false,0
Block 1: Binocular_Standard,65,-0.019999999999999997,left,left,0.5370231399997465,correct,1
Block 1: Binocular_Standard,66,0.019999999999999997,left,right,0.47543413700032033,false,0
Block 1: Binocular_Standard,67,0.03,right,right,0.4348767950000365,correct,1
Block 1: Binocular_Standard,68,0.03,right,right,0.4761685020002915,correct,1
Block 1: Binocular_Standard,69,0.019999999999999997,left,right,0.5672573839997312,false,0
Block 1: Binocular_Standard,70,-0.019999999999999997,right,left,0.5465174500000103,false,0
Block 1: Binocular_Standard,71,0.03,right,right,0.7187622060000649,correct,1
Block 1: Binocular_Standard,72,-0.03,left,left,0.5058511100000942,correct,1
Block 1: Binocular_Standard,73,0.03,right,right,0.7690601360000073,correct,1
Block 1: Binocular_Standard,74,0.019999999999999997,right,right,0.6071608069996728,correct,1
Block 1: Binocular_Standard,75,0.019999999999999997,right,right,0.8805457180001213,correct,1
Block 1: Binocular_Standard,76,-0.03,left,left,0.4858430019999105,correct,1
Block 1: Binocular_Standard,77,0.009999999999999997,right,right,1.1040963860000375,correct,1
Block 1: Binocular_Standard,78,0.009999999999999997,right,right,0.698336176000339,correct,1
Block 1: Binocular_Standard,79,-3.469446951953614e-18,right,right,0.6476211760000297,correct,1
Block 1: Binocular_Standard,80,-0.019999999999999997,left,left,0.6074371119998432,correct,1
Block 1: Binocular_Standard,81,-0.019999999999999997,left,left,0.6679192719998355,correct,1
Block 1: Binocular_Standard,82,-3.469446951953614e-18,right,right,0.8602683160002016,correct,1
Block 1: Binocular_Standard,83,-0.010000000000000004,left,right,0.6082506480001939,false,0
Block 1: Binocular_Standard,84,-0.009999999999999997,right,left,0.6580019909997645,false,0
Block 1: Binocular_Standard,85,-0.019999999999999997,left,left,0.415083002999836,correct,1
Block 1: Binocular_Standard,86,-0.019999999999999997,left,left,0.4551399259999016,correct,1
Block 1: Binocular_Standard,87,-0.009999999999999997,right,left,0.97161841299976,false,0
Block 1: Binocular_Standard,88,-0.019999999999999997,left,left,0.3954024020003999,correct,1
Block 1: Binocular_Standard,89,-0.019999999999999997,left,left,0.4956373060003898,correct,1
Block 1: Binocular_Standard,90,-0.009999999999999997,left,left,2.5115761590000147,correct,1
Block 1: Binocular_Standard,91,-3.469446951953614e-18,left,right,0.6276499559999138,false,0
Block 1: Binocular_Standard,92,0.009999999999999997,right,right,0.5769344840000485,correct,1
Block 1: Binocular_Standard,93,-0.009999999999999997,left,left,0.49625536799976544,correct,1
Block 1: Binocular_Standard,94,0.009999999999999997,left,right,0.6278335160000097,false,0
Block 1: Binocular_Standard,95,0.019999999999999997,right,right,0.3945211330001257,correct,1
Block 1: Binocular_Standard,96,3.469446951953614e-18,right,left,0.61823045500023,false,0
Block 1: Binocular_Standard,97,-0.009999999999999997,left,left,0.5060781170000155,correct,1
Block 1: Binocular_Standard,98,0.019999999999999997,right,right,0.8910882910004148,correct,1
Block 1: Binocular_Standard,99,0.009999999999999997,left,right,0.8606877610000083,false,0
Block 1: Binocular_Standard,100,-0.009999999999999997,right,left,0.6278471209998315,false,0
Block 1: Binocular_Standard,101,-0.019999999999999997,left,left,0.5563631979998718,correct,1
Block 1: Binocular_Standard,102,0.019999999999999997,right,right,0.7289355520001664,correct,1
Block 1: Binocular_Standard,103,-0.019999999999999997,left,left,0.7894098229999145,correct,1
Block 1: Binocular_Standard,104,-0.009999999999999997,left,left,0.8103163420000783,correct,1
Block 1: Binocular_Standard,105,-0.009999999999999997,left,left,0.901794160999998,correct,1
Block 1: Binocular_Standard,106,3.469446951953614e-18,left,left,0.7488836760003323,correct,1
Block 1: Binocular_Standard,107,3.469446951953614e-18,right,left,0.6779320259997803,false,0
Block 1: Binocular_Standard,108,-0.009999999999999997,left,left,0.5161318820000815,correct,1
Block 1: Binocular_Standard,109,-0.009999999999999997,left,left,1.6604686380001112,correct,1
Block 1: Binocular_Standard,110,0.019999999999999997,right,right,0.7499455209999724,correct,1
Block 1: Binocular_Standard,111,3.469446951953614e-18,left,left,0.9323417049999989,correct,1
Block 1: Binocular_Standard,112,0.009999999999999997,right,right,0.6274634609999339,correct,1
Block 1: Binocular_Standard,113,0.009999999999999997,left,right,0.46586342099999456,false,0
Block 1: Binocular_Standard,114,3.469446951953614e-18,left,left,0.6476485140001387,correct,1
Block 1: Binocular_Standard,115,0.010000000000000004,left,left,0.6273437889999514,correct,1
Block 1: Binocular_Standard,116,0.010000000000000004,left,left,0.7190444299999399,correct,1
Block 1: Binocular_Standard,117,0.019999999999999997,right,right,0.6980326319999222,correct,1
Block 1: Binocular_Standard,118,0.019999999999999997,left,right,0.5769078729999819,false,0
Block 1: Binocular_Standard,119,0.03,right,right,0.32370761099991796,correct,1
Block 1: Binocular_Standard,120,0.03,right,right,0.4558012789998429,correct,1
Block 1: Binocular_Standard,121,0.019999999999999997,right,right,0.5065680989996508,correct,1
Block 1: Binocular_Standard,122,0.020000000000000004,right,left,0.4656842859999415,false,0
Block 1: Binocular_Standard,123,0.019999999999999997,left,right,0.35418653599981553,false,0
Block 1: Binocular_Standard,124,0.010000000000000004,left,left,0.6279438870001286,correct,1
Block 1: Binocular_Standard,125,0.03,right,right,0.47565742300002967,correct,1
Block 1: Binocular_Standard,126,0.03,right,right,0.46571973300024183,correct,1
Block 1: Binocular_Standard,127,0.010000000000000004,right,left,0.5565657339998324,false,0
Block 1: Binocular_Standard,128,0.019999999999999997,left,right,0.39455945000008796,false,0
Block 1: Binocular_Standard,129,0.03,right,right,0.38449738099961905,correct,1
Block 1: Binocular_Standard,130,3.469446951953614e-18,right,left,0.8807905939997909,false,0
Block 1: Binocular_Standard,131,0.03,right,right,0.6592235739999524,correct,1
Block 1: Binocular_Standard,132,0.019999999999999997,right,right,0.9012267469997823,correct,1
Block 1: Binocular_Standard,133,0.019999999999999997,right,right,0.5059304480000719,correct,1
Block 1: Binocular_Standard,134,-0.009999999999999997,right,left,0.5883900089997951,false,0
Block 1: Binocular_Standard,135,0.009999999999999997,left,right,0.63746650100029,false,0
Block 1: Binocular_Standard,136,-0.019999999999999997,left,left,0.5464904519999436,correct,1
Block 1: Binocular_Standard,137,-0.019999999999999997,left,left,0.648114527999951,correct,1
Block 1: Binocular_Standard,138,0.019999999999999997,right,right,1.0329698410000674,correct,1
Block 1: Binocular_Standard,139,0.019999999999999997,right,right,0.7389829000003374,correct,1
Block 1: Binocular_Standard,140,0.009999999999999997,right,right,2.005360725999708,correct,1
Block 1: Binocular_Standard,141,-0.009999999999999997,left,left,0.4857503700000052,correct,1
Block 1: Binocular_Standard,142,0.009999999999999997,left,right,0.8202477180002461,false,0
Block 1: Binocular_Standard,143,0.019999999999999997,left,right,0.5167204489998767,false,0
Block 1: Binocular_Standard,144,0.03,right,right,0.31343612299997403,correct,1
Block 1: Binocular_Standard,145,-0.009999999999999997,right,left,0.34373504899986074,false,0
Block 1: Binocular_Standard,146,-0.019999999999999997,left,left,0.47567540199997893,correct,1
Block 1: Binocular_Standard,147,-0.019999999999999997,right,left,0.5057160169999406,false,0
Block 1: Binocular_Standard,148,-0.03,left,left,0.30357953199973053,correct,1
Block 1: Binocular_Standard,149,0.03,right,right,0.5973999319999166,correct,1
Block 1: Binocular_Standard,150,-0.03,left,left,0.4045679270002438,correct,1
Block 1: Binocular_Standard,151,-0.019999999999999997,left,left,0.4957674459997179,correct,1
Block 1: Binocular_Standard,152,0.019999999999999997,right,right,0.5575318899996091,correct,1
Block 1: Binocular_Standard,153,-0.019999999999999997,left,left,0.4554683040000782,correct,1
Block 1: Binocular_Standard,154,0.019999999999999997,right,right,0.6075961900000948,correct,1
Block 1: Binocular_Standard,155,0.009999999999999997,left,right,0.43570643400016706,false,0
Block 1: Binocular_Standard,156,0.019999999999999997,right,right,0.27311218199974974,correct,1
Block 1: Binocular_Standard,157,-0.009999999999999997,right,left,0.3840762569998333,false,0
Block 1: Binocular_Standard,158,-0.019999999999999997,left,left,0.3443308370001432,correct,1
Block 1: Binocular_Standard,159,-0.019999999999999997,left,left,0.4854648000000452,correct,1
Block 1: Binocular_Standard,160,-0.009999999999999997,left,left,0.6677981109996836,correct,1
Block 1: Binocular_Standard,161,0.019999999999999997,right,right,0.617615060999924,correct,1
Block 1: Binocular_Standard,162,-0.009999999999999997,left,left,0.5768325690000893,correct,1
Block 1: Binocular_Standard,163,3.469446951953614e-18,left,left,0.5466207340000437,correct,1
Block 1: Binocular_Standard,164,3.469446951953614e-18,right,left,0.5368416629999047,false,0
Block 1: Binocular_Standard,165,-0.009999999999999997,left,left,0.344719501000327,correct,1
Block 1: Binocular_Standard,166,0.009999999999999997,left,right,0.6071127559998786,false,0
Block 1: Binocular_Standard,167,-0.009999999999999997,right,left,0.4651764270001877,false,0
Block 1: Binocular_Standard,168,-0.019999999999999997,left,left,0.49580131899983826,correct,1
Block 1: Binocular_Standard,169,-0.019999999999999997,left,left,0.5467986169996948,correct,1
Block 2: Binocular_Crowded,0,-0.15,left,left,0.8098398260003705,correct,1
Block 2: Binocular_Crowded,1,0.15,right,right,0.49569647900034397,correct,1
Block 2: Binocular_Crowded,2,0.15,right,right,0.5766115870001158,correct,1
Block 2: Binocular_Crowded,3,-0.15,left,left,0.5160414900001342,correct,1
Block 2: Binocular_Crowded,4,0.13999999999999999,right,right,0.5264209520000804,correct,1
Block 2: Binocular_Crowded,5,-0.13999999999999999,left,left,0.35381635900012043,correct,1
Block 2: Binocular_Crowded,6,0.13999999999999999,right,right,0.42502165599989894,correct,1
Block 2: Binocular_Crowded,7,0.12999999999999998,right,right,0.759705502000088,correct,1
Block 2: Binocular_Crowded,8,-0.13999999999999999,left,left,0.5362087000003157,correct,1
Block 2: Binocular_Crowded,9,-0.12999999999999998,left,left,0.5057121710001411,correct,1
Block 2: Binocular_Crowded,10,0.12999999999999998,right,right,0.4357744150001963,correct,1
Block 2: Binocular_Crowded,11,-0.12999999999999998,left,left,0.5262619820000509,correct,1
Block 2: Binocular_Crowded,12,0.11999999999999998,right,right,0.4551476910000929,correct,1
Block 2: Binocular_Crowded,13,0.11999999999999998,right,right,0.4861883889998353,correct,1
Block 2: Binocular_Crowded,14,-0.11999999999999998,left,left,0.38552575599987904,correct,1
Block 2: Binocular_Crowded,15,-0.11999999999999998,right,left,0.3944331269999566,false,0
Block 2: Binocular_Crowded,16,0.10999999999999999,left,right,0.2832790389998081,false,0
Block 2: Binocular_Crowded,17,0.11999999999999998,right,right,0.6273604179996255,correct,1
Block 2: Binocular_Crowded,18,-0.12999999999999998,left,left,0.32360934799999086,correct,1
Block 2: Binocular_Crowded,19,-0.12999999999999998,left,left,0.5057197080000151,correct,1
Block 2: Binocular_Crowded,20,0.11999999999999998,right,right,0.45505327099999704,correct,1
Block 2: Binocular_Crowded,21,-0.11999999999999998,left,left,0.4151019470000392,correct,1
Block 2: Binocular_Crowded,22,-0.11999999999999998,left,left,0.33391227500032983,correct,1
Block 2: Binocular_Crowded,23,-0.10999999999999999,left,left,0.6481112820001727,correct,1
Block 2: Binocular_Crowded,24,0.10999999999999999,right,right,0.5463571160003085,correct,1
Block 2: Binocular_Crowded,25,-0.10999999999999999,left,left,0.41503923099980966,correct,1
Block 2: Binocular_Crowded,26,0.10999999999999999,left,right,0.8504807879999134,false,0
Block 2: Binocular_Crowded,27,0.11999999999999998,right,right,0.37432169900012013,correct,1
Block 2: Binocular_Crowded,28,-0.09999999999999999,left,left,0.5663355310002771,correct,1
Block 2: Binocular_Crowded,29,0.11999999999999998,left,right,2.8977565959999083,false,0
Block 2: Binocular_Crowded,30,-0.09999999999999999,right,left,0.3945849339997949,false,0
Block 2: Binocular_Crowded,31,-0.10999999999999999,left,left,0.6070968160001939,correct,1
Block 2: Binocular_Crowded,32,-0.10999999999999999,left,left,0.546320415000082,correct,1
Block 2: Binocular_Crowded,33,-0.09999999999999999,left,left,0.40513464700006807,correct,1
Block 2: Binocular_Crowded,34,-0.09999999999999999,left,left,0.43471552300024996,correct,1
Block 2: Binocular_Crowded,35,0.12999999999999998,right,right,0.4654868610000449,correct,1
Block 2: Binocular_Crowded,36,0.12999999999999998,right,right,0.4348518870001499,correct,1
Block 2: Binocular_Crowded,37,0.11999999999999998,right,right,0.36464920800017353,correct,1
Block 2: Binocular_Crowded,38,0.11999999999999998,right,right,0.39453397999977824,correct,1
Block 2: Binocular_Crowded,39,-0.09,left,left,0.4563974269999562,correct,1
Block 2: Binocular_Crowded,40,-0.09,left,left,0.5664593940000486,correct,1
Block 2: Binocular_Crowded,41,0.10999999999999999,right,right,0.3340395870000066,correct,1
Block 2: Binocular_Crowded,42,-0.08,left,left,0.47581166899999516,correct,1
Block 2: Binocular_Crowded,43,0.10999999999999999,right,right,0.3337991759999568,correct,1
Block 2: Binocular_Crowded,44,0.09999999999999999,right,right,0.3946980099999564,correct,1
Block 2: Binocular_Crowded,45,-0.08,left,left,0.42486884400022973,correct,1
Block 2: Binocular_Crowded,46,0.09999999999999999,right,right,0.44513377800012677,correct,1
Block 2: Binocular_Crowded,47,-0.07,left,left,0.39464825799996106,correct,1
Block 2: Binocular_Crowded,48,-0.07,left,left,3.241209598000296,correct,1
Block 2: Binocular_Crowded,49,-0.060000000000000005,right,left,0.3535206219999054,false,0
Block 2: Binocular_Crowded,50,-0.07,right,left,0.43591074500000104,false,0
Block 2: Binocular_Crowded,51,0.09,right,right,0.44476144200007184,correct,1
Block 2: Binocular_Crowded,52,0.09,right,right,0.39459275299986984,correct,1
Block 2: Binocular_Crowded,53,-0.08,left,left,0.42509325099990747,correct,1
Block 2: Binocular_Crowded,54,-0.08,left,left,0.4965372289998413,correct,1
Block 2: Binocular_Crowded,55,-0.07,left,left,0.5973830099997031,correct,1
Block 2: Binocular_Crowded,56,0.08,right,right,0.47562398799982475,correct,1
Block 2: Binocular_Crowded,57,0.08,right,right,1.6204626409999037,correct,1
Block 2: Binocular_Crowded,58,-0.07,left,left,0.4551790999998957,correct,1
Block 2: Binocular_Crowded,59,-0.060000000000000005,left,left,0.42511144899981446,correct,1
Block 2: Binocular_Crowded,60,0.07,left,right,0.6578022029998465,false,0
Block 2: Binocular_Crowded,61,0.08,right,right,0.4250269149997621,correct,1
Block 2: Binocular_Crowded,62,0.08,right,right,0.4565444149998257,correct,1
Block 2: Binocular_Crowded,63,-0.060000000000000005,left,left,0.8611166189998585,correct,1
Block 2: Binocular_Crowded,64,0.07,right,right,0.5263308140001755,correct,1
Block 2: Binocular_Crowded,65,0.07,right,right,1.153555827999753,correct,1
Block 2: Binocular_Crowded,66,0.060000000000000005,right,right,0.48564935800004605,correct,1
Block 2: Binocular_Crowded,67,-0.05,left,left,0.5565241250001236,correct,1
Block 2: Binocular_Crowded,68,-0.05,left,left,0.49569613299991033,correct,1
Block 2: Binocular_Crowded,69,-0.04,left,left,0.456353080000099,correct,1
Block 2: Binocular_Crowded,70,0.060000000000000005,left,right,0.5973053309999159,false,0
Block 2: Binocular_Crowded,71,0.07,right,right,0.35452307000014116,correct,1
Block 2: Binocular_Crowded,72,-0.04,left,left,0.40463658199996644,correct,1
Block 2: Binocular_Crowded,73,0.07,left,right,0.6986017080002966,false,0
Block 2: Binocular_Crowded,74,-0.03,right,left,0.16149178400019082,false,0
Block 2: Binocular_Crowded,75,-0.04,left,left,0.45532057200034615,correct,1
Block 2: Binocular_Crowded,76,-0.04,left,left,0.4349476560000767,correct,1
Block 2: Binocular_Crowded,77,-0.03,left,left,0.840161468000133,correct,1
Block 2: Binocular_Crowded,78,0.08,right,right,0.41495849200009616,correct,1
Block 2: Binocular_Crowded,79,-0.03,left,left,0.6074996000002102,correct,1
Block 2: Binocular_Crowded,80,-0.019999999999999997,left,left,0.7085756599999513,correct,1
Block 2: Binocular_Crowded,81,-0.019999999999999997,right,left,1.4383994609997899,false,0
Block 2: Binocular_Crowded,82,-0.03,left,left,0.52639491500031,correct,1
Block 2: Binocular_Crowded,83,0.08,right,right,0.5466922049999994,correct,1
Block 2: Binocular_Crowded,84,-0.03,left,left,0.60708310300015,correct,1
Block 2: Binocular_Crowded,85,-0.019999999999999997,left,left,1.113690239999869,correct,1
Block 2: Binocular_Crowded,86,0.07,right,right,0.46547575299973687,correct,1
Block 2: Binocular_Crowded,87,-0.019999999999999997,left,left,0.48599139799989644,correct,1
Block 2: Binocular_Crowded,88,-0.009999999999999997,right,left,0.5974057250000442,false,0
Block 2: Binocular_Crowded,89,-0.019999999999999997,left,left,0.2830119959999138,correct,1
Block 2: Binocular_Crowded,90,0.07,left,right,0.6886368949999451,false,0
Block 2: Binocular_Crowded,91,0.08,right,right,0.5060319330000311,correct,1
Block 2: Binocular_Crowded,92,-0.019999999999999997,right,left,0.7604007049999382,false,0
Block 2: Binocular_Crowded,93,0.08,right,right,0.48639791200002946,correct,1
Block 2: Binocular_Crowded,94,-0.03,left,left,0.5367623699999058,correct,1
Block 2: Binocular_Crowded,95,-0.03,left,left,0.6076211780000449,correct,1
Block 2: Binocular_Crowded,96,-0.019999999999999997,left,left,0.7491236060000119,correct,1
Block 2: Binocular_Crowded,97,0.07,right,right,0.42472260600015943,correct,1
Block 2: Binocular_Crowded,98,0.07,right,right,0.4350031220001256,correct,1
Block 2: Binocular_Crowded,99,-0.019999999999999997,left,left,0.6174480790000416,correct,1
Block 2: Binocular_Crowded,100,-0.009999999999999997,right,left,0.2933534650001093,false,0
Block 2: Binocular_Crowded,101,0.060000000000000005,right,right,0.5473564589997295,correct,1
Block 2: Binocular_Crowded,102,0.060000000000000005,right,right,0.39472429599982206,correct,1
Block 2: Binocular_Crowded,103,0.05,right,right,0.4451354440002433,correct,1
Block 2: Binocular_Crowded,104,0.05,right,right,0.39496234099988214,correct,1
Block 2: Binocular_Crowded,105,0.04,right,right,0.48613102900026206,correct,1
Block 2: Binocular_Crowded,106,-0.019999999999999997,left,left,0.6376107869996304,correct,1
Block 2: Binocular_Crowded,107,0.04,right,right,0.4043916040000113,correct,1
Block 2: Binocular_Crowded,108,0.03,right,right,0.5458452920001946,correct,1
Block 2: Binocular_Crowded,109,0.03,right,right,0.44529485900011423,correct,1
Block 2: Binocular_Crowded,110,-0.019999999999999997,right,left,0.4046144900003128,false,0
Block 2: Binocular_Crowded,111,-0.03,left,left,0.2031670490000579,correct,1
Block 2: Binocular_Crowded,112,0.019999999999999997,left,right,0.5369326549998732,false,0
Block 2: Binocular_Crowded,113,0.03,left,right,1.0019698189998962,false,0
Block 2: Binocular_Crowded,114,-0.03,right,left,0.3134224069999618,false,0
Block 2: Binocular_Crowded,115,-0.04,left,left,0.5566487969999798,correct,1
Block 2: Binocular_Crowded,116,-0.04,left,left,0.5060524219998115,correct,1
Block 2: Binocular_Crowded,117,-0.03,left,left,0.6474390650000714,correct,1
Block 2: Binocular_Crowded,118,-0.03,left,left,0.4249769739999465,correct,1
Block 2: Binocular_Crowded,119,0.04,right,right,0.49614284400013275,correct,1
Block 2: Binocular_Crowded,120,-0.019999999999999997,right,left,0.5365275200001633,false,0
Block 2: Binocular_Crowded,121,0.04,left,right,0.3034023579998575,false,0
Block 2: Binocular_Crowded,122,-0.03,right,left,0.5157243389999167,false,0
Block 2: Binocular_Crowded,123,0.05,left,right,0.49583938700016006,false,0
Block 2: Binocular_Crowded,124,-0.04,right,left,0.5770780749999176,false,0
Block 2: Binocular_Crowded,125,0.060000000000000005,left,right,0.4352882769999269,false,0
Block 2: Binocular_Crowded,126,-0.05,left,left,0.18300709100003587,correct,1
Block 2: Binocular_Crowded,127,-0.05,left,left,0.7894691380001859,correct,1
Block 2: Binocular_Crowded,128,-0.04,right,left,0.8604694939999717,false,0
Block 2: Binocular_Crowded,129,-0.05,left,left,0.34393855500002246,correct,1
Block 2: Binocular_Crowded,130,0.07,right,right,0.5361583700000665,correct,1
Block 2: Binocular_Crowded,131,-0.05,left,left,0.5672825290002947,correct,1
Block 2: Binocular_Crowded,132,-0.04,left,left,0.47550452699988455,correct,1
Block 2: Binocular_Crowded,133,0.07,right,right,0.4757377539999652,correct,1
Block 2: Binocular_Crowded,134,0.060000000000000005,left,right,1.0427260070000557,false,0
Block 2: Binocular_Crowded,135,0.07,right,right,0.37439139999969484,correct,1
Block 2: Binocular_Crowded,136,0.07,right,right,0.5060133699998914,correct,1
Block 2: Binocular_Crowded,137,-0.04,left,left,0.4349862720000601,correct,1
Block 2: Binocular_Crowded,138,0.060000000000000005,right,right,0.5572996550004063,correct,1
Block 2: Binocular_Crowded,139,0.060000000000000005,right,right,0.47571301700008917,correct,1
Block 2: Binocular_Crowded,140,0.05,left,right,1.255400819999977,false,0
Block 2: Binocular_Crowded,141,0.060000000000000005,right,right,0.33366212399960204,correct,1
Block 2: Binocular_Crowded,142,0.060000000000000005,right,right,0.4755657990003783,correct,1
Block 2: Binocular_Crowded,143,0.05,right,right,0.5161558910003805,correct,1
Block 2: Binocular_Crowded,144,0.05,right,right,0.49578957800031276,correct,1
Block 2: Binocular_Crowded,145,-0.03,left,left,0.6275359339997522,correct,1
Block 2: Binocular_Crowded,146,-0.03,left,left,0.5869214079998528,correct,1
Block 2: Binocular_Crowded,147,0.04,right,right,0.9431002070000432,correct,1
Block 2: Binocular_Crowded,148,0.04,left,right,0.5260853539998607,false,0
Block 2: Binocular_Crowded,149,0.05,right,right,0.37432602299986684,correct,1
Block 2: Binocular_Crowded,150,-0.019999999999999997,right,left,1.0841110769997613,false,0
Block 2: Binocular_Crowded,151,0.05,right,right,0.5975628840001264,correct,1
Block 2: Binocular_Crowded,152,0.04,left,right,0.6877300689998265,false,0
Block 2: Binocular_Crowded,153,-0.03,right,left,0.8599377769996863,false,0
Block 2: Binocular_Crowded,154,0.05,left,right,1.113864082999953,false,0
Block 2: Binocular_Crowded,155,0.060000000000000005,right,right,1.2357188700002553,correct,1
Block 2: Binocular_Crowded,156,0.060000000000000005,right,right,0.678414710999732,correct,1
Block 2: Binocular_Crowded,157,-0.04,left,left,0.6067479119997188,correct,1
Block 2: Binocular_Crowded,158,-0.04,left,left,1.2151928489997772,correct,1
Block 2: Binocular_Crowded,159,0.05,left,right,1.0327004199998555,false,0
Block 2: Binocular_Crowded,160,-0.03,right,left,0.3945524519999708,false,0
Block 2: Binocular_Crowded,161,0.060000000000000005,right,right,0.5571714349998729,correct,1
Block 2: Binocular_Crowded,162,0.060000000000000005,left,right,0.7701845309998134,false,0
Block 2: Binocular_Crowded,163,0.07,right,right,0.4454033330002858,correct,1
Block 2: Binocular_Crowded,164,0.07,right,right,0.43565581100028794,correct,1
Block 2: Binocular_Crowded,165,0.060000000000000005,right,right,1.2452880340006232,correct,1
Block 2: Binocular_Crowded,166,-0.04,left,left,0.79936964099943,correct,1
Block 2: Binocular_Crowded,167,-0.04,left,left,0.4350893119999455,correct,1
Block 2: Binocular_Crowded,168,-0.03,left,left,0.5160933439992732,correct,1
Block 2: Binocular_Crowded,169,0.060000000000000005,right,right,0.4656932589996359,correct,1
Block 3: Monocular_Standard,0,0.15,right,right,0.6887750500000038,correct,1
Block 3: Monocular_Standard,1,-0.15,left,left,0.40412945200023387,correct,1
Block 3: Monocular_Standard,2,-0.15,left,left,0.4762515180000264,correct,1
Block 3: Monocular_Standard,3,-0.13999999999999999,left,left,0.5266418760002125,correct,1
Block 3: Monocular_Standard,4,-0.13999999999999999,left,left,0.40497301399955177,correct,1
Block 3: Monocular_Standard,5,-0.12999999999999998,left,left,0.41576228800022363,correct,1
Block 3: Monocular_Standard,6,-0.12999999999999998,left,left,0.5359612900001594,correct,1
Block 3: Monocular_Standard,7,-0.11999999999999998,left,left,0.45508988899928227,correct,1
Block 3: Monocular_Standard,8,0.15,right,right,0.4360546609996163,correct,1
Block 3: Monocular_Standard,9,0.13999999999999999,right,right,0.363881231999585,correct,1
Block 3: Monocular_Standard,10,-0.11999999999999998,left,left,0.47570199399979174,correct,1
Block 3: Monocular_Standard,11,-0.10999999999999999,left,left,0.536489946999609,correct,1
Block 3: Monocular_Standard,12,-0.10999999999999999,left,left,0.46534399700067297,correct,1
Block 3: Monocular_Standard,13,0.13999999999999999,right,right,0.4149658529995577,correct,1
Block 3: Monocular_Standard,14,-0.09999999999999999,left,left,0.4152208060004341,correct,1
Block 3: Monocular_Standard,15,-0.09999999999999999,left,left,0.5463695859998552,correct,1
Block 3: Monocular_Standard,16,0.12999999999999998,right,right,0.33375962500031164,correct,1
Block 3: Monocular_Standard,17,-0.09,left,left,0.536576409999725,correct,1
Block 3: Monocular_Standard,18,-0.09,left,left,0.8708688219994656,correct,1
Block 3: Monocular_Standard,19,-0.08,left,left,0.7389863660000628,correct,1
Block 3: Monocular_Standard,20,0.12999999999999998,right,right,0.41457197399995493,correct,1
Block 3: Monocular_Standard,21,0.11999999999999998,right,right,0.3743118649999815,correct,1
Block 3: Monocular_Standard,22,-0.08,left,left,0.4449307479999334,correct,1
Block 3: Monocular_Standard,23,-0.07,left,left,0.8401629539994246,correct,1
Block 3: Monocular_Standard,24,0.11999999999999998,right,right,0.4045696359999056,correct,1
Block 3: Monocular_Standard,25,0.10999999999999999,right,right,0.4654515709999032,correct,1
Block 3: Monocular_Standard,26,-0.07,left,left,0.415084090000164,correct,1
Block 3: Monocular_Standard,27,-0.060000000000000005,left,left,0.566433885999686,correct,1
Block 3: Monocular_Standard,28,-0.060000000000000005,left,left,0.7286172719996102,correct,1
Block 3: Monocular_Standard,29,0.10999999999999999,right,right,0.3945887910003876,correct,1
Block 3: Monocular_Standard,30,0.09999999999999999,right,right,0.4559549830000833,correct,1
Block 3: Monocular_Standard,31,0.09999999999999999,right,right,0.4855866629995944,correct,1
Block 3: Monocular_Standard,32,0.09,right,right,0.27301920100035204,correct,1
Block 3: Monocular_Standard,33,-0.05,left,left,0.5469137069994758,correct,1
Block 3: Monocular_Standard,34,0.09,right,right,0.5071033620006347,correct,1
Block 3: Monocular_Standard,35,0.08,right,right,0.4451991469995846,correct,1
Block 3: Monocular_Standard,36,0.08,right,right,1.1639391429998796,correct,1
Block 3: Monocular_Standard,37,-0.05,left,left,0.9922311919999629,correct,1
Block 3: Monocular_Standard,38,-0.04,left,left,1.4884846659997493,correct,1
Block 3: Monocular_Standard,39,-0.04,right,left,0.586941859000035,false,0
Block 3: Monocular_Standard,40,0.07,right,right,0.4149463010007821,correct,1
Block 3: Monocular_Standard,41,0.07,right,right,0.36440940700049396,correct,1
Block 3: Monocular_Standard,42,0.060000000000000005,right,right,0.3440242440001384,correct,1
Block 3: Monocular_Standard,43,-0.05,left,left,0.4551683399995454,correct,1
Block 3: Monocular_Standard,44,-0.05,left,left,0.5664641940002184,correct,1
Block 3: Monocular_Standard,45,-0.04,left,left,0.455635379999876,correct,1
Block 3: Monocular_Standard,46,-0.04,left,left,0.6477930399996694,correct,1
Block 3: Monocular_Standard,47,-0.03,left,left,0.44516073200065875,correct,1
Block 3: Monocular_Standard,48,0.060000000000000005,right,right,0.41481980699973064,correct,1
Block 3: Monocular_Standard,49,-0.03,right,left,0.708118585000193,false,0
Block 3: Monocular_Standard,50,-0.04,left,left,0.4854555519996211,correct,1
Block 3: Monocular_Standard,51,-0.04,left,left,0.34399351499996556,correct,1
Block 3: Monocular_Standard,52,-0.03,left,left,0.7286140269998214,correct,1
Block 3: Monocular_Standard,53,0.05,right,right,0.4455035979999593,correct,1
Block 3: Monocular_Standard,54,-0.03,right,left,0.6072870500001954,false,0
Block 3: Monocular_Standard,55,-0.04,left,left,0.37392154400004074,correct,1
Block 3: Monocular_Standard,56,-0.04,left,left,0.3337307410001813,correct,1
Block 3: Monocular_Standard,57,0.05,right,right,0.47552394100057427,correct,1
Block 3: Monocular_Standard,58,0.04,right,right,0.5969207779999124,correct,1
Block 3: Monocular_Standard,59,0.04,left,right,0.4654599590003272,false,0
Block 3: Monocular_Standard,60,-0.03,right,left,0.32354518299962365,false,0
Block 3: Monocular_Standard,61,0.05,right,right,0.43505939499937085,correct,1
Block 3: Monocular_Standard,62,-0.04,left,left,0.5770214469994244,correct,1
Block 3: Monocular_Standard,63,0.05,right,right,0.415464300000167,correct,1
Block 3: Monocular_Standard,64,-0.04,left,left,0.5058139200000369,correct,1
Block 3: Monocular_Standard,65,0.04,right,right,0.36420369200004643,correct,1
Block 3: Monocular_Standard,66,0.04,right,right,0.41559568800039415,correct,1
Block 3: Monocular_Standard,67,-0.03,left,left,0.4967538290002267,correct,1
Block 3: Monocular_Standard,68,-0.03,left,left,0.5262471810001443,correct,1
Block 3: Monocular_Standard,69,0.03,right,right,0.49602611099999194,correct,1
Block 3: Monocular_Standard,70,0.03,right,right,0.7395794540007046,correct,1
Block 3: Monocular_Standard,71,0.019999999999999997,right,right,0.3639518539994242,correct,1
Block 3: Monocular_Standard,72,0.019999999999999997,right,right,0.728061603000242,correct,1
Block 3: Monocular_Standard,73,0.009999999999999997,right,right,0.5566667719995166,correct,1
Block 3: Monocular_Standard,74,0.009999999999999997,right,right,0.3550443799995264,correct,1
Block 3: Monocular_Standard,75,-3.469446951953614e-18,right,right,0.38427196000066033,correct,1
Block 3: Monocular_Standard,76,-3.469446951953614e-18,right,right,0.30333367200000794,correct,1
Block 3: Monocular_Standard,77,-0.010000000000000004,right,right,0.6476914619997842,correct,1
Block 3: Monocular_Standard,78,-0.010000000000000004,left,right,0.6177466869994532,false,0
Block 3: Monocular_Standard,79,-0.019999999999999997,right,left,0.2630053009997937,false,0
Block 3: Monocular_Standard,80,-3.469446951953614e-18,right,right,0.5467598430004728,correct,1
Block 3: Monocular_Standard,81,-3.469446951953614e-18,right,right,0.33368686199992226,correct,1
Block 3: Monocular_Standard,82,-0.03,left,left,0.5770112230002269,correct,1
Block 3: Monocular_Standard,83,-0.010000000000000004,right,right,1.0024516739995306,correct,1
Block 3: Monocular_Standard,84,-0.03,left,left,0.455163567999989,correct,1
Block 3: Monocular_Standard,85,-0.019999999999999997,right,left,0.37430556300023454,false,0
Block 3: Monocular_Standard,86,-0.010000000000000004,right,right,0.5360555479992399,correct,1
Block 3: Monocular_Standard,87,-0.020000000000000004,left,right,0.384521718000542,false,0
Block 3: Monocular_Standard,88,-0.010000000000000004,right,right,0.37436311500005104,correct,1
Block 3: Monocular_Standard,89,-0.010000000000000004,left,right,0.6481232850001106,false,0
Block 3: Monocular_Standard,90,-0.03,right,left,0.3234710589995302,false,0
Block 3: Monocular_Standard,91,-0.04,left,left,0.485410371999933,correct,1
Block 3: Monocular_Standard,92,-0.04,left,left,0.4050259920004464,correct,1
Block 3: Monocular_Standard,93,-0.03,left,left,0.4249766670000099,correct,1
Block 3: Monocular_Standard,94,-0.03,left,left,0.4563146919999781,correct,1
Block 3: Monocular_Standard,95,-3.469446951953614e-18,left,right,0.3238695190002545,false,0
Block 3: Monocular_Standard,96,0.009999999999999997,right,right,0.3540497480007616,correct,1
Block 3: Monocular_Standard,97,-0.019999999999999997,left,left,0.789355900999908,correct,1
Block 3: Monocular_Standard,98,-0.019999999999999997,left,left,0.546482336999361,correct,1
Block 3: Monocular_Standard,99,0.009999999999999997,right,right,0.4549179710002136,correct,1
Block 3: Monocular_Standard,100,-0.009999999999999997,left,left,0.5468345070003124,correct,1
Block 3: Monocular_Standard,101,-0.009999999999999997,left,left,0.5465134750002107,correct,1
Block 3: Monocular_Standard,102,3.469446951953614e-18,left,left,0.6074321739997686,correct,1
Block 3: Monocular_Standard,103,-3.469446951953614e-18,left,right,0.4552233679996789,false,0
Block 3: Monocular_Standard,104,0.009999999999999997,right,right,0.29335500599972875,correct,1
Block 3: Monocular_Standard,105,0.009999999999999997,right,right,0.5260992569992595,correct,1
Block 3: Monocular_Standard,106,3.469446951953614e-18,right,left,0.7189771920002386,false,0
Block 3: Monocular_Standard,107,-3.469446951953614e-18,left,right,0.31362311900011264,false,0
Block 3: Monocular_Standard,108,0.009999999999999997,right,right,0.39453463700010616,correct,1
Block 3: Monocular_Standard,109,-0.009999999999999997,right,left,0.38460269100050937,false,0
Block 3: Monocular_Standard,110,-0.019999999999999997,left,left,0.7691581849994691,correct,1
Block 3: Monocular_Standard,111,0.009999999999999997,left,right,0.5464068999999654,false,0
Block 3: Monocular_Standard,112,-0.019999999999999997,right,left,0.2225824030001604,false,0
Block 3: Monocular_Standard,113,-0.03,right,left,0.40447718300038105,false,0
Block 3: Monocular_Standard,114,-0.04,left,left,0.3340740219991858,correct,1
Block 3: Monocular_Standard,115,0.019999999999999997,right,right,0.5260833709999133,correct,1
Block 3: Monocular_Standard,116,0.019999999999999997,right,right,0.6170564789999844,correct,1
Block 3: Monocular_Standard,117,-0.04,left,left,0.44499917899975117,correct,1
Block 3: Monocular_Standard,118,0.009999999999999997,right,right,0.5060656759997073,correct,1
Block 3: Monocular_Standard,119,0.009999999999999997,left,right,0.5060293910000837,false,0
Block 3: Monocular_Standard,120,-0.03,right,left,0.3134942010001396,false,0
Block 3: Monocular_Standard,121,-0.04,right,left,0.22258487999988574,false,0
Block 3: Monocular_Standard,122,0.019999999999999997,left,right,0.3235341449999396,false,0
Block 3: Monocular_Standard,123,0.03,right,right,0.6277898489997824,correct,1
Block 3: Monocular_Standard,124,0.03,right,right,0.6979611850001675,correct,1
Block 3: Monocular_Standard,125,0.019999999999999997,right,right,0.6379671489994507,correct,1
Block 3: Monocular_Standard,126,-0.05,left,left,0.9517548170006194,correct,1
Block 3: Monocular_Standard,127,-0.05,left,left,0.6683069589998922,correct,1
Block 3: Monocular_Standard,128,0.019999999999999997,right,right,0.8911374920007802,correct,1
Block 3: Monocular_Standard,129,0.009999999999999997,left,right,0.6581992819992593,false,0
Block 3: Monocular_Standard,130,-0.04,left,left,0.5665399360004812,correct,1
Block 3: Monocular_Standard,131,0.019999999999999997,right,right,0.5262718009998935,correct,1
Block 3: Monocular_Standard,132,0.019999999999999997,right,right,1.0534551150003608,correct,1
Block 3: Monocular_Standard,133,0.009999999999999997,right,right,1.0929912060000788,correct,1
Block 3: Monocular_Standard,134,0.009999999999999997,right,right,0.6476637310006481,correct,1
Block 3: Monocular_Standard,135,-0.04,left,left,0.5467334249997293,correct,1
Block 3: Monocular_Standard,136,-0.03,left,left,0.587045520999709,correct,1
Block 3: Monocular_Standard,137,-3.469446951953614e-18,right,right,2.2979862610000055,correct,1
Block 3: Monocular_Standard,138,-3.469446951953614e-18,right,right,0.6587907909997739,correct,1
Block 3: Monocular_Standard,139,-0.010000000000000004,right,right,1.022114929000054,correct,1
Block 3: Monocular_Standard,140,-0.010000000000000004,left,right,0.5665073910004139,false,0
Block 3: Monocular_Standard,141,-0.03,left,left,0.891232793999734,correct,1
Block 3: Monocular_Standard,142,-0.019999999999999997,right,left,0.5868803980001758,false,0
Block 3: Monocular_Standard,143,-3.469446951953614e-18,right,right,1.4275132009997833,correct,1
Block 3: Monocular_Standard,144,-0.03,right,left,1.3263049770002908,false,0
Block 3: Monocular_Standard,145,-0.04,left,left,0.46553672299978643,correct,1
Block 3: Monocular_Standard,146,-0.04,left,left,0.42496618400036823,correct,1
Block 3: Monocular_Standard,147,-3.469446951953614e-18,left,right,0.5970399839998208,false,0
Block 3: Monocular_Standard,148,-0.03,right,left,0.29412713599958806,false,0
Block 3: Monocular_Standard,149,-0.04,left,left,0.46631077799975174,correct,1
Block 3: Monocular_Standard,150,0.009999999999999997,left,right,0.6778042699997968,false,0
Block 3: Monocular_Standard,151,-0.04,left,left,0.5367671029998746,correct,1
Block 3: Monocular_Standard,152,0.019999999999999997,right,right,0.44532266200076265,correct,1
Block 3: Monocular_Standard,153,-0.03,left,left,0.5765484120001929,correct,1
Block 3: Monocular_Standard,154,0.019999999999999997,left,right,0.6979893339994305,false,0
Block 3: Monocular_Standard,155,-0.03,right,left,0.7494443939995108,false,0
Block 3: Monocular_Standard,156,0.03,left,right,0.28315772700079833,false,0
Block 3: Monocular_Standard,157,-0.04,left,left,0.5161452249994909,correct,1
Block 3: Monocular_Standard,158,0.04,right,right,0.44531417500002135,correct,1
Block 3: Monocular_Standard,159,-0.04,left,left,0.4857365360003314,correct,1
Block 3: Monocular_Standard,160,0.04,right,right,0.47618625199993403,correct,1
Block 3: Monocular_Standard,161,-0.03,left,left,0.46539474000019254,correct,1
Block 3: Monocular_Standard,162,-0.03,left,left,0.5765804820002813,correct,1
Block 3: Monocular_Standard,163,-0.019999999999999997,left,left,0.5365416559998266,correct,1
Block 3: Monocular_Standard,164,0.03,right,right,0.851015481000104,correct,1
Block 3: Monocular_Standard,165,-0.019999999999999997,right,left,0.5570769149999251,false,0
Block 3: Monocular_Standard,166,0.03,left,right,0.3136250730003667,false,0
Block 3: Monocular_Standard,167,0.04,right,right,0.3032769739993455,correct,1
Block 3: Monocular_Standard,168,0.04,right,right,0.5162483489993974,correct,1
Block 3: Monocular_Standard,169,0.03,right,right,0.4649342840002646,correct,1
Block 4: Monocular_Crowded,0,-0.15,left,left,1.0333192329999292,correct,1
Block 4: Monocular_Crowded,1,0.15,right,right,0.4350175030003811,correct,1
Block 4: Monocular_Crowded,2,0.15,right,right,0.45561810699928174,correct,1
Block 4: Monocular_Crowded,3,-0.15,left,left,0.4857010480000099,correct,1
Block 4: Monocular_Crowded,4,0.13999999999999999,right,right,0.5366383010004938,correct,1
Block 4: Monocular_Crowded,5,0.13999999999999999,left,right,0.31346015199960675,false,0
Block 4: Monocular_Crowded,6,0.15,right,right,0.4449706920004246,correct,1
Block 4: Monocular_Crowded,7,-0.13999999999999999,left,left,0.38445188500008953,correct,1
Block 4: Monocular_Crowded,8,-0.13999999999999999,left,left,0.3945741770003224,correct,1
Block 4: Monocular_Crowded,9,-0.12999999999999998,left,left,0.3742390110000997,correct,1
Block 4: Monocular_Crowded,10,0.15,right,right,0.4653455039997425,correct,1
Block 4: Monocular_Crowded,11,0.13999999999999999,right,right,0.45569626500036975,correct,1
Block 4: Monocular_Crowded,12,0.13999999999999999,right,right,0.39478525899994565,correct,1
Block 4: Monocular_Crowded,13,-0.12999999999999998,left,left,0.45566488200074673,correct,1
Block 4: Monocular_Crowded,14,0.12999999999999998,right,right,0.43562172700058,correct,1
Block 4: Monocular_Crowded,15,-0.11999999999999998,left,left,0.39478409300045314,correct,1
Block 4: Monocular_Crowded,16,-0.11999999999999998,left,left,0.4448145799997292,correct,1
Block 4: Monocular_Crowded,17,0.12999999999999998,right,right,0.3945837239998582,correct,1
Block 4: Monocular_Crowded,18,0.11999999999999998,right,right,0.40457445199990616,correct,1
Block 4: Monocular_Crowded,19,0.11999999999999998,right,right,0.45529797800008964,correct,1
Block 4: Monocular_Crowded,20,-0.10999999999999999,left,left,0.43483620599999995,correct,1
Block 4: Monocular_Crowded,21,-0.10999999999999999,left,left,0.6984052690004319,correct,1
Block 4: Monocular_Crowded,22,-0.09999999999999999,right,left,0.3944992489996366,false,0
Block 4: Monocular_Crowded,23,0.10999999999999999,right,right,0.4855858310002077,correct,1
Block 4: Monocular_Crowded,24,0.10999999999999999,right,right,0.48565637899992,correct,1
Block 4: Monocular_Crowded,25,-0.10999999999999999,left,left,0.4854743949999829,correct,1
Block 4: Monocular_Crowded,26,-0.10999999999999999,left,left,0.34368604900009814,correct,1
Block 4: Monocular_Crowded,27,0.09999999999999999,left,right,0.7896204180005952,false,0
Block 4: Monocular_Crowded,28,0.10999999999999999,right,right,0.48558372299976327,correct,1
Block 4: Monocular_Crowded,29,-0.09999999999999999,left,left,0.5055481660001533,correct,1
Block 4: Monocular_Crowded,30,-0.09999999999999999,left,left,0.465618123999775,correct,1
Block 4: Monocular_Crowded,31,-0.09,left,left,0.49576497100042616,correct,1
Block 4: Monocular_Crowded,32,-0.09,left,left,0.33404059399981634,correct,1
Block 4: Monocular_Crowded,33,-0.08,left,left,0.3135544700007813,correct,1
Block 4: Monocular_Crowded,34,0.10999999999999999,right,right,0.4856628899997304,correct,1
Block 4: Monocular_Crowded,35,-0.08,left,left,0.36461118799979886,correct,1
Block 4: Monocular_Crowded,36,0.09999999999999999,right,right,0.4751509889993031,correct,1
Block 4: Monocular_Crowded,37,-0.07,left,left,0.6476700260000143,correct,1
Block 4: Monocular_Crowded,38,-0.07,right,left,0.40497025800050324,false,0
Block 4: Monocular_Crowded,39,0.09999999999999999,right,right,0.5056203040003311,correct,1
Block 4: Monocular_Crowded,40,-0.08,left,left,0.45539501099938207,correct,1
Block 4: Monocular_Crowded,41,0.09,right,right,0.44488182499935647,correct,1
Block 4: Monocular_Crowded,42,-0.08,left,left,0.3846252359999198,correct,1
Block 4: Monocular_Crowded,43,-0.07,left,left,0.496308886999941,correct,1
Block 4: Monocular_Crowded,44,0.09,right,right,0.4145242459999281,correct,1
Block 4: Monocular_Crowded,45,-0.07,left,left,0.42500383900005545,correct,1
Block 4: Monocular_Crowded,46,0.08,right,right,0.41501390099983837,correct,1
Block 4: Monocular_Crowded,47,0.08,right,right,0.900893220999933,correct,1
Block 4: Monocular_Crowded,48,-0.060000000000000005,left,left,0.627706524000132,correct,1
Block 4: Monocular_Crowded,49,-0.060000000000000005,left,left,0.4453972479996082,correct,1
Block 4: Monocular_Crowded,50,0.07,right,right,0.49594787400019413,correct,1
Block 4: Monocular_Crowded,51,-0.05,left,left,0.6478945389999353,correct,1
Block 4: Monocular_Crowded,52,-0.05,left,left,0.5462022539995814,correct,1
Block 4: Monocular_Crowded,53,0.07,right,right,0.3744965030000458,correct,1
Block 4: Monocular_Crowded,54,0.060000000000000005,right,right,0.6175092609992134,correct,1
Block 4: Monocular_Crowded,55,0.060000000000000005,right,right,0.5869383290000769,correct,1
Block 4: Monocular_Crowded,56,-0.04,left,left,0.4853634069995678,correct,1
Block 4: Monocular_Crowded,57,-0.04,left,left,0.8301146969997717,correct,1
Block 4: Monocular_Crowded,58,0.05,right,right,0.4651313949998439,correct,1
Block 4: Monocular_Crowded,59,0.05,right,right,0.7601832709997325,correct,1
Block 4: Monocular_Crowded,60,-0.03,right,left,0.6074229129999367,false,0
Block 4: Monocular_Crowded,61,0.04,left,right,0.4150109669999438,false,0
Block 4: Monocular_Crowded,62,0.05,right,right,0.4347427050006445,correct,1
Block 4: Monocular_Crowded,63,-0.04,right,left,0.6885595120002108,false,0
Block 4: Monocular_Crowded,64,-0.05,left,left,0.5770384060006108,correct,1
Block 4: Monocular_Crowded,65,0.05,left,right,0.5574516369997582,false,0
Block 4: Monocular_Crowded,66,0.060000000000000005,right,right,0.3542212459997245,correct,1
Block 4: Monocular_Crowded,67,-0.05,left,left,0.5569304600003306,correct,1
Block 4: Monocular_Crowded,68,-0.04,left,left,0.5061502210000981,correct,1
Block 4: Monocular_Crowded,69,0.060000000000000005,left,right,0.7490008240001771,false,0
Block 4: Monocular_Crowded,70,0.07,right,right,0.2734934919999432,correct,1
Block 4: Monocular_Crowded,71,0.07,right,right,1.813536835999912,correct,1
Block 4: Monocular_Crowded,72,-0.04,right,left,0.4960641190000388,false,0
Block 4: Monocular_Crowded,73,0.060000000000000005,right,right,0.6882988750003278,correct,1
Block 4: Monocular_Crowded,74,0.060000000000000005,right,right,0.42501738900045893,correct,1
Block 4: Monocular_Crowded,75,0.05,right,right,0.505838775000484,correct,1
Block 4: Monocular_Crowded,76,0.05,right,right,0.5058114029998251,correct,1
Block 4: Monocular_Crowded,77,0.04,right,right,0.8397622780003076,correct,1
Block 4: Monocular_Crowded,78,0.04,right,right,1.3873943749995306,correct,1
Block 4: Monocular_Crowded,79,0.03,right,right,0.8207724719995895,correct,1
Block 4: Monocular_Crowded,80,-0.05,left,left,0.5059893940006077,correct,1
Block 4: Monocular_Crowded,81,-0.05,left,left,0.7692151100000046,correct,1
Block 4: Monocular_Crowded,82,0.03,left,right,0.8097935039995718,false,0
Block 4: Monocular_Crowded,83,-0.04,left,left,0.6681584660000226,correct,1
Block 4: Monocular_Crowded,84,0.04,right,right,0.15147496100053104,correct,1
Block 4: Monocular_Crowded,85,0.04,right,right,0.6483835150002051,correct,1
Block 4: Monocular_Crowded,86,0.03,right,right,0.4758915380007238,correct,1
Block 4: Monocular_Crowded,87,0.03,right,right,0.4252260510002088,correct,1
Block 4: Monocular_Crowded,88,-0.04,right,left,0.41530649600008473,false,0
Block 4: Monocular_Crowded,89,-0.05,left,left,0.24242011599926627,correct,1
Block 4: Monocular_Crowded,90,0.019999999999999997,left,right,0.47520564400019794,false,0
Block 4: Monocular_Crowded,91,-0.05,right,left,0.25280937099978473,false,0
Block 4: Monocular_Crowded,92,-0.060000000000000005,left,left,0.3033956589997615,correct,1
Block 4: Monocular_Crowded,93,-0.060000000000000005,left,left,0.49573992600016936,correct,1
Block 4: Monocular_Crowded,94,0.03,left,right,0.5264505099994494,false,0
Block 4: Monocular_Crowded,95,-0.05,right,left,0.3540314120000403,false,0
Block 4: Monocular_Crowded,96,-0.060000000000000005,left,left,0.5665371049999521,correct,1
Block 4: Monocular_Crowded,97,-0.060000000000000005,left,left,0.424934370000301,correct,1
Block 4: Monocular_Crowded,98,0.04,left,right,0.39496790599969245,false,0
Block 4: Monocular_Crowded,99,-0.05,left,left,0.3651231430003463,correct,1
Block 4: Monocular_Crowded,100,0.05,left,right,0.5364543600007892,false,0
Block 4: Monocular_Crowded,101,0.060000000000000005,right,right,0.37508630200045445,correct,1
Block 4: Monocular_Crowded,102,-0.05,left,left,0.48562207099985244,correct,1
Block 4: Monocular_Crowded,103,-0.04,left,left,0.6680937810006071,correct,1
Block 4: Monocular_Crowded,104,-0.04,left,left,0.8808059539996975,correct,1
Block 4: Monocular_Crowded,105,0.060000000000000005,right,right,0.5463470929998948,correct,1
Block 4: Monocular_Crowded,106,-0.03,right,left,0.6477736570004708,false,0
Block 4: Monocular_Crowded,107,0.05,left,right,0.31352074799997354,false,0
Block 4: Monocular_Crowded,108,0.060000000000000005,right,right,0.3645000679998702,correct,1
Block 4: Monocular_Crowded,109,0.060000000000000005,right,right,0.4752336210003705,correct,1
Block 4: Monocular_Crowded,110,-0.04,right,left,1.0834944429998359,false,0
Block 4: Monocular_Crowded,111,-0.05,left,left,0.39474034100021527,correct,1
Block 4: Monocular_Crowded,112,-0.05,left,left,0.5780374559999473,correct,1
Block 4: Monocular_Crowded,113,0.05,right,right,0.606927595000343,correct,1
Block 4: Monocular_Crowded,114,0.05,right,right,0.516234658999565,correct,1
Block 4: Monocular_Crowded,115,-0.04,left,left,0.43522524099989823,correct,1
Block 4: Monocular_Crowded,116,0.04,right,right,0.49624119300005987,correct,1
Block 4: Monocular_Crowded,117,-0.04,left,left,0.5069344740004453,correct,1
Block 4: Monocular_Crowded,118,0.04,right,right,0.7493895709994831,correct,1
Block 4: Monocular_Crowded,119,-0.03,left,left,0.8197490740003559,correct,1
Block 4: Monocular_Crowded,120,-0.03,left,left,0.5361263149998194,correct,1
Block 4: Monocular_Crowded,121,-0.019999999999999997,right,left,0.9111818189994665,false,0
Block 4: Monocular_Crowded,122,0.03,left,right,0.3537991350003722,false,0
Block 4: Monocular_Crowded,123,-0.03,right,left,0.27276839400019526,false,0
Block 4: Monocular_Crowded,124,-0.04,left,left,0.22226610199959396,correct,1
Block 4: Monocular_Crowded,125,0.04,left,right,0.476540863000082,false,0
Block 4: Monocular_Crowded,126,0.05,right,right,0.5767114660002335,correct,1
Block 4: Monocular_Crowded,127,-0.04,left,left,0.8203208869999798,correct,1
Block 4: Monocular_Crowded,128,0.05,right,right,0.5565066499993918,correct,1
Block 4: Monocular_Crowded,129,0.04,left,right,0.4554064140002083,false,0
Block 4: Monocular_Crowded,130,-0.03,right,left,0.19199322900021798,false,0
Block 4: Monocular_Crowded,131,0.05,left,right,0.2018233050002891,false,0
Block 4: Monocular_Crowded,132,-0.04,left,left,0.7185492339995108,correct,1
Block 4: Monocular_Crowded,133,0.060000000000000005,right,right,0.45511060999979236,correct,1
Block 4: Monocular_Crowded,134,-0.04,left,left,0.5161599889997888,correct,1
Block 4: Monocular_Crowded,135,0.060000000000000005,right,right,0.394647692000035,correct,1
Block 4: Monocular_Crowded,136,-0.03,right,left,0.576243735999924,false,0
Block 4: Monocular_Crowded,137,0.05,left,right,0.25286501299979136,false,0
Block 4: Monocular_Crowded,138,-0.04,left,left,0.6375077519996921,correct,1
Block 4: Monocular_Crowded,139,-0.04,right,left,0.46592062299987447,false,0
Block 4: Monocular_Crowded,140,0.060000000000000005,left,right,0.6276558200006548,false,0
Block 4: Monocular_Crowded,141,-0.05,left,left,0.9615092880003431,correct,1
Block 4: Monocular_Crowded,142,-0.05,left,left,0.5263607749993753,correct,1
Block 4: Monocular_Crowded,143,0.07,left,right,0.5465077210001255,false,0
Block 4: Monocular_Crowded,144,-0.04,right,left,0.6179167310001503,false,0
Block 4: Monocular_Crowded,145,0.08,right,right,0.5365350980000585,correct,1
Block 4: Monocular_Crowded,146,0.08,right,right,1.093426652000744,correct,1
Block 4: Monocular_Crowded,147,-0.05,left,left,0.48559170799944695,correct,1
Block 4: Monocular_Crowded,148,-0.05,left,left,0.4958334579996517,correct,1
Block 4: Monocular_Crowded,149,-0.04,left,left,0.46562425199954305,correct,1
Block 4: Monocular_Crowded,150,0.07,right,right,0.5161397360006958,correct,1
Block 4: Monocular_Crowded,151,0.07,right,right,0.6174805540003945,correct,1
Block 4: Monocular_Crowded,152,0.060000000000000005,right,right,0.5971092350000617,correct,1
Block 4: Monocular_Crowded,153,-0.04,right,left,0.5775075530000322,false,0
Block 4: Monocular_Crowded,154,-0.05,left,left,0.41477278399997886,correct,1
Block 4: Monocular_Crowded,155,0.060000000000000005,right,right,0.4861002899997402,correct,1
Block 4: Monocular_Crowded,156,-0.05,left,left,0.5170151039992561,correct,1
Block 4: Monocular_Crowded,157,0.05,left,right,0.9319152560001385,false,0
Block 4: Monocular_Crowded,158,-0.04,right,left,0.6484137170000395,false,0
Block 4: Monocular_Crowded,159,0.060000000000000005,right,right,0.5363006999996287,correct,1
Block 4: Monocular_Crowded,160,-0.05,left,left,0.7285193180005081,correct,1
Block 4: Monocular_Crowded,161,0.060000000000000005,left,right,0.7084535160001906,false,0
Block 4: Monocular_Crowded,162,-0.05,right,left,0.3437529729999369,false,0
Block 4: Monocular_Crowded,163,0.07,left,right,0.31361240000023827,false,0
Block 4: Monocular_Crowded,164,0.08,right,right,0.4657612680002785,correct,1
Block 4: Monocular_Crowded,165,-0.060000000000000005,left,left,0.5372768950001046,correct,1
Block 4: Monocular_Crowded,166,-0.060000000000000005,left,left,0.9923276459994668,correct,1
Block 4: Monocular_Crowded,167,0.08,right,right,2.2893856179998693,correct,1
Block 4: Monocular_Crowded,168,0.07,right,right,0.7289198640000905,correct,1
Block 4: Monocular_Crowded,169,-0.05,left,left,1.2758256729994173,correct,1
