label,trials,offset,keys,direction,response_time,accuracy,response_numeric
Block 1: Binocular_UC,0,-0.2,left,left,2.344394964000003,correct,1
Block 1: Binocular_UC,1,-0.2,left,left,0.5158409839998512,correct,1
Block 1: Binocular_UC,2,0.2,right,right,0.36399951199996394,correct,1
Block 1: Binocular_UC,3,0.2,right,right,0.4351866740000787,correct,1
Block 1: Binocular_UC,4,-0.19,left,left,0.3541373019997991,correct,1
Block 1: Binocular_UC,5,-0.19,left,left,0.3843082040000354,correct,1
Block 1: Binocular_UC,6,-0.18,left,left,0.4552805799999078,correct,1
Block 1: Binocular_UC,7,-0.18,left,left,0.36395005300005323,correct,1
Block 1: Binocular_UC,8,-0.16999999999999998,left,left,0.2932943509999859,correct,1
Block 1: Binocular_UC,9,-0.16999999999999998,left,left,0.4756764630001271,correct,1
Block 1: Binocular_UC,10,-0.15999999999999998,left,left,0.3438567639998382,correct,1
Block 1: Binocular_UC,11,-0.15999999999999998,left,left,0.33372353699996893,correct,1
Block 1: Binocular_UC,12,0.19,right,right,0.546326008999813,correct,1
Block 1: Binocular_UC,13,-0.14999999999999997,left,left,0.3234317200001442,correct,1
Block 1: Binocular_UC,14,0.19,right,right,0.24269305999996504,correct,1
Block 1: Binocular_UC,15,-0.14999999999999997,left,left,0.2429804650000733,correct,1
Block 1: Binocular_UC,16,0.18,right,right,0.1819126820000747,correct,1
Block 1: Binocular_UC,17,0.18,right,right,0.21190536800008886,correct,1
Block 1: Binocular_UC,18,-0.13999999999999996,left,left,0.25303435199998603,correct,1
Block 1: Binocular_UC,19,0.16999999999999998,right,right,0.2326665339999181,correct,1
Block 1: Binocular_UC,20,0.16999999999999998,right,right,0.3338691369999651,correct,1
Block 1: Binocular_UC,21,0.15999999999999998,right,right,0.182654735999904,correct,1
Block 1: Binocular_UC,22,-0.13999999999999996,left,left,0.23254910800005746,correct,1
Block 1: Binocular_UC,23,-0.12999999999999995,left,left,0.44486439000002065,correct,1
Block 1: Binocular_UC,24,0.15999999999999998,right,right,0.23266504000002897,correct,1
Block 1: Binocular_UC,25,0.14999999999999997,right,right,0.20211970699983794,correct,1
Block 1: Binocular_UC,26,0.14999999999999997,right,right,0.27306051400000797,correct,1
Block 1: Binocular_UC,27,-0.12999999999999995,left,left,0.2531093099998998,correct,1
Block 1: Binocular_UC,28,0.13999999999999996,right,right,0.24246635600002264,correct,1
Block 1: Binocular_UC,29,0.13999999999999996,right,right,0.2425673759998972,correct,1
Block 1: Binocular_UC,30,0.12999999999999995,left,right,0.25277006600003915,false,0
Block 1: Binocular_UC,31,-0.11999999999999995,left,left,0.2830682960000104,correct,1
Block 1: Binocular_UC,32,0.13999999999999996,right,right,0.272833066999965,correct,1
Block 1: Binocular_UC,33,-0.11999999999999995,left,left,0.17188479400010692,correct,1
Block 1: Binocular_UC,34,-0.10999999999999996,left,left,0.28321255300011217,correct,1
Block 1: Binocular_UC,35,-0.10999999999999996,left,left,0.2020362529999602,correct,1
Block 1: Binocular_UC,36,0.13999999999999996,right,right,0.2732592279999153,correct,1
Block 1: Binocular_UC,37,-0.09999999999999996,left,left,0.22238882999999987,correct,1
Block 1: Binocular_UC,38,-0.09999999999999996,left,left,0.26295909700002085,correct,1
Block 1: Binocular_UC,39,0.12999999999999995,right,right,0.22302878300001794,correct,1
Block 1: Binocular_UC,40,-0.08999999999999997,left,left,0.1817485939998278,correct,1
Block 1: Binocular_UC,41,0.12999999999999995,right,right,0.23254086199995072,correct,1
Block 1: Binocular_UC,42,-0.08999999999999997,left,left,0.19225653699982104,correct,1
Block 1: Binocular_UC,43,-0.07999999999999997,left,left,0.2831032189999405,correct,1
Block 1: Binocular_UC,44,-0.07999999999999997,left,left,0.15147666999996545,correct,1
Block 1: Binocular_UC,45,-0.06999999999999998,left,left,0.2326226489999499,correct,1
Block 1: Binocular_UC,46,-0.06999999999999998,left,left,0.17247042899998632,correct,1
Block 1: Binocular_UC,47,-0.05999999999999998,left,left,0.2727250360001108,correct,1
Block 1: Binocular_UC,48,0.11999999999999995,right,right,0.3236026110000694,correct,1
Block 1: Binocular_UC,49,-0.05999999999999998,left,left,0.22224537800002508,correct,1
Block 1: Binocular_UC,50,0.11999999999999995,right,right,0.24267459299994698,correct,1
Block 1: Binocular_UC,51,0.10999999999999996,right,right,0.27325147400006244,correct,1
Block 1: Binocular_UC,52,0.10999999999999996,right,right,0.3235099429998627,correct,1
Block 1: Binocular_UC,53,0.09999999999999996,right,right,0.23221691799994915,correct,1
Block 1: Binocular_UC,54,-0.049999999999999975,left,left,0.2425581229999807,correct,1
Block 1: Binocular_UC,55,0.09999999999999996,right,right,0.33353774100010014,correct,1
Block 1: Binocular_UC,56,0.08999999999999997,right,right,0.2629410770000504,correct,1
Block 1: Binocular_UC,57,-0.049999999999999975,left,left,0.47588156799997705,correct,1
Block 1: Binocular_UC,58,-0.03999999999999997,left,left,0.3132836910001515,correct,1
Block 1: Binocular_UC,59,0.08999999999999997,right,right,0.24264625099999648,correct,1
Block 1: Binocular_UC,60,-0.03999999999999997,left,left,0.23258596799996667,correct,1
Block 1: Binocular_UC,61,0.07999999999999997,right,right,0.26372920699986935,correct,1
Block 1: Binocular_UC,62,-0.02999999999999997,left,left,0.19174359299995558,correct,1
Block 1: Binocular_UC,63,-0.02999999999999997,right,left,0.7999790469998516,false,0
Block 1: Binocular_UC,64,-0.03999999999999997,left,left,0.262857232999977,correct,1
Block 1: Binocular_UC,65,-0.03999999999999997,right,left,0.23270367400004943,false,0
Block 1: Binocular_UC,66,-0.049999999999999975,left,left,0.23268438600007357,correct,1
Block 1: Binocular_UC,67,0.07999999999999997,right,right,0.31310349399996085,correct,1
Block 1: Binocular_UC,68,0.06999999999999998,right,right,0.33373108799992224,correct,1
Block 1: Binocular_UC,69,0.06999999999999998,right,right,0.3237362239999584,correct,1
Block 1: Binocular_UC,70,-0.049999999999999975,left,left,0.3651137279998693,correct,1
Block 1: Binocular_UC,71,-0.03999999999999997,left,left,0.4552559860001111,correct,1
Block 1: Binocular_UC,72,0.05999999999999998,right,right,0.29334647800010316,correct,1
Block 1: Binocular_UC,73,0.05999999999999998,right,right,0.3534693100000368,correct,1
Block 1: Binocular_UC,74,0.049999999999999975,right,right,0.21326511000006576,correct,1
Block 1: Binocular_UC,75,-0.03999999999999997,left,left,0.2932199629999559,correct,1
Block 1: Binocular_UC,76,-0.02999999999999997,left,left,0.45492040699991776,correct,1
Block 1: Binocular_UC,77,0.049999999999999975,right,right,0.2835425400000986,correct,1
Block 1: Binocular_UC,78,0.03999999999999997,right,right,0.547150954000017,correct,1
Block 1: Binocular_UC,79,-0.02999999999999997,left,left,0.3543436099998871,correct,1
Block 1: Binocular_UC,80,-0.01999999999999997,left,left,0.4752840579999429,correct,1
Block 1: Binocular_UC,81,0.03999999999999997,right,right,0.25286737499982337,correct,1
Block 1: Binocular_UC,82,0.02999999999999997,right,right,0.24263308499985214,correct,1
Block 1: Binocular_UC,83,-0.01999999999999997,left,left,0.4448551949999455,correct,1
Block 1: Binocular_UC,84,0.02999999999999997,right,right,0.23272021399998266,correct,1
Block 1: Binocular_UC,85,0.01999999999999997,left,right,0.3438356740000472,false,0
Block 1: Binocular_UC,86,0.02999999999999997,right,right,0.14153615000009268,correct,1
Block 1: Binocular_UC,87,-0.009999999999999969,right,left,1.1639153670000724,false,0
Block 1: Binocular_UC,88,0.02999999999999997,right,right,0.28299972600007095,correct,1
Block 1: Binocular_UC,89,-0.01999999999999997,left,left,0.4048513620000449,correct,1
Block 1: Binocular_UC,90,0.01999999999999997,right,right,0.43539073500005543,correct,1
Block 1: Binocular_UC,91,0.01999999999999997,right,right,0.25271858699989025,correct,1
Block 1: Binocular_UC,92,-0.01999999999999997,left,left,0.9822560349998639,correct,1
Block 1: Binocular_UC,93,0.009999999999999969,right,right,0.4248878920000152,correct,1
Block 1: Binocular_UC,94,0.009999999999999969,right,right,0.6879635029999918,correct,1
Block 1: Binocular_UC,95,-3.122502256758253e-17,left,right,0.45534201200007374,false,0
Block 1: Binocular_UC,96,-0.009999999999999969,right,left,0.2935069659999954,false,0
Block 1: Binocular_UC,97,-0.01999999999999997,left,left,0.47591755099983857,correct,1
Block 1: Binocular_UC,98,-0.01999999999999997,left,left,0.7382258279999405,correct,1
Block 1: Binocular_UC,99,0.009999999999999969,left,right,0.901189402,false,0
Block 1: Binocular_UC,100,-0.009999999999999969,right,left,0.849923231000048,false,0
Block 1: Binocular_UC,101,0.01999999999999997,right,right,0.364285351000035,correct,1
Block 1: Binocular_UC,102,-0.01999999999999997,left,left,0.3338836000000356,correct,1
Block 1: Binocular_UC,103,-0.01999999999999997,left,left,0.3945871139999326,correct,1
Block 1: Binocular_UC,104,0.01999999999999997,right,right,0.7998946380000689,correct,1
Block 1: Binocular_UC,105,-0.009999999999999969,left,left,0.48541914099996575,correct,1
Block 1: Binocular_UC,106,0.009999999999999969,left,right,0.6783814679999978,false,0
Block 1: Binocular_UC,107,0.01999999999999997,right,right,0.4347035190000952,correct,1
Block 1: Binocular_UC,108,0.01999999999999997,right,right,0.3745005260000198,correct,1
Block 1: Binocular_UC,109,-0.009999999999999969,left,left,0.41577434700002414,correct,1
Block 1: Binocular_UC,110,0.009999999999999969,right,right,0.3336954540000079,correct,1
Block 1: Binocular_UC,111,0.009999999999999969,left,right,0.4048986469999818,false,0
Block 1: Binocular_UC,112,0.01999999999999997,right,right,0.28327074200001334,correct,1
Block 1: Binocular_UC,113,3.122502256758253e-17,right,left,0.44476196400000845,false,0
Block 1: Binocular_UC,114,0.01999999999999997,right,right,0.4854501299998901,correct,1
Block 1: Binocular_UC,115,0.009999999999999969,right,right,0.4752582009998605,correct,1
Block 1: Binocular_UC,116,0.009999999999999969,right,right,0.5971540880000248,correct,1
Block 1: Binocular_UC,117,-0.009999999999999969,left,left,0.7090383339998425,correct,1
Block 1: Binocular_UC,118,-3.122502256758253e-17,right,right,0.7082431270000598,correct,1
Block 1: Binocular_UC,119,-0.009999999999999969,left,left,0.43478827100011586,correct,1
Block 2: Binocular_C,0,-0.2,left,left,0.6779924110001048,correct,1
Block 2: Binocular_C,1,-0.2,left,left,0.4349884129999282,correct,1
Block 2: Binocular_C,2,-0.19,left,left,0.7689927819999411,correct,1
Block 2: Binocular_C,3,0.2,right,right,0.4147327599998789,correct,1
Block 2: Binocular_C,4,0.2,right,right,0.24263467000014316,correct,1
Block 2: Binocular_C,5,-0.19,left,left,0.4450107239999852,correct,1
Block 2: Binocular_C,6,-0.18,left,left,0.32357277899996006,correct,1
Block 2: Binocular_C,7,0.19,right,right,0.2527818080000088,correct,1
Block 2: Binocular_C,8,0.19,right,right,0.28314545400007773,correct,1
Block 2: Binocular_C,9,-0.18,left,left,0.27301541699989684,correct,1
Block 2: Binocular_C,10,0.18,right,right,0.24281192099988402,correct,1
Block 2: Binocular_C,11,0.18,right,right,0.22257673900003283,correct,1
Block 2: Binocular_C,12,-0.16999999999999998,left,left,0.3032737270000325,correct,1
Block 2: Binocular_C,13,0.16999999999999998,right,right,0.272925684999791,correct,1
Block 2: Binocular_C,14,-0.16999999999999998,left,left,0.25272649399994407,correct,1
Block 2: Binocular_C,15,-0.15999999999999998,left,left,0.3739878999999746,correct,1
Block 2: Binocular_C,16,0.16999999999999998,right,right,0.22271585500038782,correct,1
Block 2: Binocular_C,17,0.15999999999999998,right,right,0.1817626800002472,correct,1
Block 2: Binocular_C,18,-0.15999999999999998,left,left,0.32406870199974946,correct,1
Block 2: Binocular_C,19,-0.14999999999999997,left,left,0.32347610099986923,correct,1
Block 2: Binocular_C,20,0.15999999999999998,right,right,0.2526579230002426,correct,1
Block 2: Binocular_C,21,0.14999999999999997,right,right,0.20214575399995738,correct,1
Block 2: Binocular_C,22,-0.14999999999999997,left,left,0.32346134699992035,correct,1
Block 2: Binocular_C,23,0.14999999999999997,right,right,0.232396590999997,correct,1
Block 2: Binocular_C,24,-0.13999999999999996,left,left,0.22233993500003635,correct,1
Block 2: Binocular_C,25,0.13999999999999996,right,right,0.22235595499978444,correct,1
Block 2: Binocular_C,26,-0.13999999999999996,left,left,0.19189254699995217,correct,1
Block 2: Binocular_C,27,0.13999999999999996,right,right,0.1715880560000187,correct,1
Block 2: Binocular_C,28,0.12999999999999995,right,right,0.27292001899968454,correct,1
Block 2: Binocular_C,29,0.12999999999999995,right,right,0.2629586850002852,correct,1
Block 2: Binocular_C,30,0.11999999999999995,right,right,0.2120685639997646,correct,1
Block 2: Binocular_C,31,0.11999999999999995,right,right,0.34403463099988585,correct,1
Block 2: Binocular_C,32,-0.12999999999999995,left,left,0.39461738299996796,correct,1
Block 2: Binocular_C,33,-0.12999999999999995,left,left,0.1719403100000818,correct,1
Block 2: Binocular_C,34,-0.11999999999999995,left,left,0.3136080479998782,correct,1
Block 2: Binocular_C,35,0.10999999999999996,right,right,0.5968103519999204,correct,1
Block 2: Binocular_C,36,-0.11999999999999995,left,left,0.2731303969999317,correct,1
Block 2: Binocular_C,37,0.10999999999999996,right,right,0.37436982000008356,correct,1
Block 2: Binocular_C,38,0.09999999999999996,left,right,0.24257792299977154,false,0
Block 2: Binocular_C,39,0.10999999999999996,right,right,0.3235823469999559,correct,1
Block 2: Binocular_C,40,-0.10999999999999996,left,left,0.20229922099997566,correct,1
Block 2: Binocular_C,41,0.10999999999999996,right,right,0.32365975499988053,correct,1
Block 2: Binocular_C,42,-0.10999999999999996,left,left,0.32370092900009695,correct,1
Block 2: Binocular_C,43,0.09999999999999996,right,right,0.20225263000020277,correct,1
Block 2: Binocular_C,44,-0.09999999999999996,left,left,0.24255382999990616,correct,1
Block 2: Binocular_C,45,0.09999999999999996,right,right,0.16169839300027888,correct,1
Block 2: Binocular_C,46,0.08999999999999997,right,right,0.31417393300034746,correct,1
Block 2: Binocular_C,47,0.08999999999999997,right,right,0.3036067240000193,correct,1
Block 2: Binocular_C,48,-0.09999999999999996,left,left,0.5565744460000133,correct,1
Block 2: Binocular_C,49,-0.08999999999999997,right,left,0.36437397800000326,false,0
Block 2: Binocular_C,50,0.07999999999999997,right,right,0.313490018000266,correct,1
Block 2: Binocular_C,51,0.07999999999999997,right,right,0.31384962499987523,correct,1
Block 2: Binocular_C,52,0.06999999999999998,right,right,0.3238643830000001,correct,1
Block 2: Binocular_C,53,0.06999999999999998,right,right,0.27308650599979956,correct,1
Block 2: Binocular_C,54,0.05999999999999998,right,right,0.2524896830000216,correct,1
Block 2: Binocular_C,55,-0.09999999999999996,left,left,0.42600716600009036,correct,1
Block 2: Binocular_C,56,-0.09999999999999996,left,left,0.37409114399997634,correct,1
Block 2: Binocular_C,57,0.05999999999999998,right,right,0.31325494800012166,correct,1
Block 2: Binocular_C,58,-0.08999999999999997,left,left,0.2527477329999783,correct,1
Block 2: Binocular_C,59,-0.08999999999999997,left,left,0.3133076189997155,correct,1
Block 2: Binocular_C,60,-0.07999999999999997,left,left,0.32362578399988706,correct,1
Block 2: Binocular_C,61,-0.07999999999999997,left,left,0.1820617600001242,correct,1
Block 2: Binocular_C,62,-0.06999999999999998,left,left,0.2534813000002032,correct,1
Block 2: Binocular_C,63,0.049999999999999975,left,right,0.5570741050000834,false,0
Block 2: Binocular_C,64,-0.06999999999999998,left,left,0.5463585339998644,correct,1
Block 2: Binocular_C,65,0.05999999999999998,right,right,0.21215024599996468,correct,1
Block 2: Binocular_C,66,-0.05999999999999998,left,left,0.37424893500019607,correct,1
Block 2: Binocular_C,67,-0.05999999999999998,left,left,0.3038103620001493,correct,1
Block 2: Binocular_C,68,0.05999999999999998,right,right,0.2729844770001364,correct,1
Block 2: Binocular_C,69,0.049999999999999975,right,right,0.41455762000032337,correct,1
Block 2: Binocular_C,70,-0.049999999999999975,left,left,0.252591559999928,correct,1
Block 2: Binocular_C,71,0.049999999999999975,right,right,0.30318063300001086,correct,1
Block 2: Binocular_C,72,-0.049999999999999975,left,left,0.4553764319998663,correct,1
Block 2: Binocular_C,73,-0.03999999999999997,right,left,0.2123248610000701,false,0
Block 2: Binocular_C,74,-0.049999999999999975,left,left,0.15148439900031008,correct,1
Block 2: Binocular_C,75,-0.049999999999999975,left,left,0.39451311299990266,correct,1
Block 2: Binocular_C,76,-0.03999999999999997,right,left,0.47486670500029504,false,0
Block 2: Binocular_C,77,-0.049999999999999975,left,left,0.24271651300023223,correct,1
Block 2: Binocular_C,78,-0.049999999999999975,left,left,0.3132334410001931,correct,1
Block 2: Binocular_C,79,-0.03999999999999997,left,left,0.36374955199971737,correct,1
Block 2: Binocular_C,80,-0.03999999999999997,left,left,0.28427839400001176,correct,1
Block 2: Binocular_C,81,0.03999999999999997,left,right,0.41471146599997155,false,0
Block 2: Binocular_C,82,-0.02999999999999997,right,left,0.4147268320002695,false,0
Block 2: Binocular_C,83,0.049999999999999975,right,right,0.35415638199992827,correct,1
Block 2: Binocular_C,84,-0.03999999999999997,left,left,0.35411580299978596,correct,1
Block 2: Binocular_C,85,-0.03999999999999997,left,left,0.3644702869996763,correct,1
Block 2: Binocular_C,86,-0.02999999999999997,left,left,0.6370093989999077,correct,1
Block 2: Binocular_C,87,0.049999999999999975,right,right,0.23220180299995263,correct,1
Block 2: Binocular_C,88,0.03999999999999997,right,right,0.46606885699975464,correct,1
Block 2: Binocular_C,89,0.03999999999999997,right,right,0.2734175310001774,correct,1
Block 2: Binocular_C,90,0.02999999999999997,left,right,0.2932970699998805,false,0
Block 2: Binocular_C,91,0.03999999999999997,left,right,0.3539584340001056,false,0
Block 2: Binocular_C,92,0.049999999999999975,right,right,0.2929769750003288,correct,1
Block 2: Binocular_C,93,0.049999999999999975,right,right,0.4045467189998817,correct,1
Block 2: Binocular_C,94,0.03999999999999997,right,right,0.4349408879998009,correct,1
Block 2: Binocular_C,95,-0.02999999999999997,left,left,0.37417265699968993,correct,1
Block 2: Binocular_C,96,0.03999999999999997,right,right,0.22251429300013115,correct,1
Block 2: Binocular_C,97,0.02999999999999997,right,right,0.3538455489997432,correct,1
Block 2: Binocular_C,98,-0.01999999999999997,left,left,0.6683439219996217,correct,1
Block 2: Binocular_C,99,0.02999999999999997,right,right,0.2831534290003219,correct,1
Block 2: Binocular_C,100,-0.01999999999999997,right,left,0.2931474999995771,false,0
Block 2: Binocular_C,101,-0.02999999999999997,left,left,0.2929566600000726,correct,1
Block 2: Binocular_C,102,0.01999999999999997,right,right,0.3648751559999255,correct,1
Block 2: Binocular_C,103,0.01999999999999997,right,right,0.48598903500032975,correct,1
Block 2: Binocular_C,104,0.009999999999999969,left,right,0.505800311999792,false,0
Block 2: Binocular_C,105,-0.02999999999999997,left,left,0.5663974879998932,correct,1
Block 2: Binocular_C,106,-0.01999999999999997,left,left,0.5966990500000975,correct,1
Block 2: Binocular_C,107,0.01999999999999997,right,right,0.39455651500020394,correct,1
Block 2: Binocular_C,108,-0.01999999999999997,left,left,0.3742640850000498,correct,1
Block 2: Binocular_C,109,0.01999999999999997,right,right,0.30345033100002183,correct,1
Block 2: Binocular_C,110,0.009999999999999969,right,right,0.39406189900000754,correct,1
Block 2: Binocular_C,111,-0.009999999999999969,right,left,0.373541959999784,false,0
Block 2: Binocular_C,112,-0.01999999999999997,left,left,0.3942291630000909,correct,1
Block 2: Binocular_C,113,-0.01999999999999997,right,left,0.4354465330002313,false,0
Block 2: Binocular_C,114,-0.02999999999999997,left,left,0.42486683800007086,correct,1
Block 2: Binocular_C,115,0.009999999999999969,left,right,0.47526442399976077,false,0
Block 2: Binocular_C,116,0.01999999999999997,right,right,0.2726966620002713,correct,1
Block 2: Binocular_C,117,-0.02999999999999997,left,left,0.4043476599999849,correct,1
Block 2: Binocular_C,118,-0.01999999999999997,left,left,0.5155321710003591,correct,1
Block 2: Binocular_C,119,0.01999999999999997,right,right,0.40458657199997106,correct,1
Block 3: Monocular_UC,0,-0.2,left,left,0.546171231000244,correct,1
Block 3: Monocular_UC,1,-0.2,left,left,0.35482314199998655,correct,1
Block 3: Monocular_UC,2,0.2,right,right,0.24256256200033022,correct,1
Block 3: Monocular_UC,3,-0.19,left,left,0.26369302800003425,correct,1
Block 3: Monocular_UC,4,-0.19,left,left,0.15155341699983182,correct,1
Block 3: Monocular_UC,5,0.2,right,right,0.2323840519998157,correct,1
Block 3: Monocular_UC,6,0.19,right,right,0.23246478799956094,correct,1
Block 3: Monocular_UC,7,-0.18,right,left,0.12109866399987368,false,0
Block 3: Monocular_UC,8,0.19,right,right,0.1816512169998532,correct,1
Block 3: Monocular_UC,9,0.18,right,right,0.21197743899983834,correct,1
Block 3: Monocular_UC,10,0.18,right,right,0.32355554300011136,correct,1
Block 3: Monocular_UC,11,0.16999999999999998,right,right,0.2019237129998146,correct,1
Block 3: Monocular_UC,12,0.16999999999999998,right,right,0.35394943299979786,correct,1
Block 3: Monocular_UC,13,-0.19,left,left,0.2629910639998343,correct,1
Block 3: Monocular_UC,14,-0.19,left,left,0.2526530800000728,correct,1
Block 3: Monocular_UC,15,0.15999999999999998,right,right,0.19206694800004698,correct,1
Block 3: Monocular_UC,16,0.15999999999999998,right,right,0.19179373799988753,correct,1
Block 3: Monocular_UC,17,0.14999999999999997,right,right,0.2323241170001893,correct,1
Block 3: Monocular_UC,18,0.14999999999999997,right,right,0.1718070900001294,correct,1
Block 3: Monocular_UC,19,0.13999999999999996,right,right,0.19188833499993052,correct,1
Block 3: Monocular_UC,20,-0.18,left,left,0.22231084599980022,correct,1
Block 3: Monocular_UC,21,-0.18,left,left,0.2119592349999948,correct,1
Block 3: Monocular_UC,22,0.13999999999999996,right,right,0.24254108600007385,correct,1
Block 3: Monocular_UC,23,0.12999999999999995,right,right,0.23238998800025001,correct,1
Block 3: Monocular_UC,24,-0.16999999999999998,left,left,0.2729236420000234,correct,1
Block 3: Monocular_UC,25,-0.16999999999999998,left,left,0.33383769800002483,correct,1
Block 3: Monocular_UC,26,0.12999999999999995,right,right,0.18186852000008003,correct,1
Block 3: Monocular_UC,27,0.11999999999999995,right,right,0.29308783599981325,correct,1
Block 3: Monocular_UC,28,0.11999999999999995,right,right,0.232279562000258,correct,1
Block 3: Monocular_UC,29,0.10999999999999996,right,right,0.1514036280000255,correct,1
Block 3: Monocular_UC,30,-0.15999999999999998,left,left,0.2020698609999272,correct,1
Block 3: Monocular_UC,31,-0.15999999999999998,left,left,0.19187776799981293,correct,1
Block 3: Monocular_UC,32,0.10999999999999996,right,right,0.25273536199983937,correct,1
Block 3: Monocular_UC,33,-0.14999999999999997,left,left,0.192117380000127,correct,1
Block 3: Monocular_UC,34,-0.14999999999999997,right,left,0.2016168039999684,false,0
Block 3: Monocular_UC,35,-0.15999999999999998,left,left,0.29327708700020594,correct,1
Block 3: Monocular_UC,36,0.09999999999999996,right,right,0.08146895699974266,correct,1
Block 3: Monocular_UC,37,-0.15999999999999998,left,left,0.20184682700028134,correct,1
Block 3: Monocular_UC,38,0.09999999999999996,right,right,0.36395685300021796,correct,1
Block 3: Monocular_UC,39,-0.14999999999999997,left,left,0.22205472299992834,correct,1
Block 3: Monocular_UC,40,-0.14999999999999997,left,left,0.3437463530003697,correct,1
Block 3: Monocular_UC,41,0.08999999999999997,right,right,0.24270154799978627,correct,1
Block 3: Monocular_UC,42,-0.13999999999999996,left,left,0.18162299400000848,correct,1
Block 3: Monocular_UC,43,0.08999999999999997,right,right,0.12104825200003688,correct,1
Block 3: Monocular_UC,44,0.07999999999999997,right,right,0.2730007279997153,correct,1
Block 3: Monocular_UC,45,-0.13999999999999996,left,left,0.23247695000009116,correct,1
Block 3: Monocular_UC,46,0.07999999999999997,right,right,0.17151957099986248,correct,1
Block 3: Monocular_UC,47,-0.12999999999999995,left,left,0.20203323299983822,correct,1
Block 3: Monocular_UC,48,0.06999999999999998,right,right,0.21227623100003257,correct,1
Block 3: Monocular_UC,49,0.06999999999999998,right,right,0.2628522609998072,correct,1
Block 3: Monocular_UC,50,-0.12999999999999995,left,left,0.29308836899963353,correct,1
Block 3: Monocular_UC,51,-0.11999999999999995,left,left,0.29308226300008755,correct,1
Block 3: Monocular_UC,52,0.05999999999999998,right,right,0.18182068199985224,correct,1
Block 3: Monocular_UC,53,-0.11999999999999995,left,left,0.25281072500001756,correct,1
Block 3: Monocular_UC,54,-0.10999999999999996,left,left,0.26283912999997483,correct,1
Block 3: Monocular_UC,55,0.05999999999999998,right,right,0.2424494560000312,correct,1
Block 3: Monocular_UC,56,-0.10999999999999996,left,left,0.2830333439997048,correct,1
Block 3: Monocular_UC,57,0.049999999999999975,right,right,0.22218778500018743,correct,1
Block 3: Monocular_UC,58,-0.09999999999999996,left,left,0.26291539499970895,correct,1
Block 3: Monocular_UC,59,-0.09999999999999996,left,left,0.2626863890000095,correct,1
Block 3: Monocular_UC,60,-0.08999999999999997,left,left,0.3944008720000056,correct,1
Block 3: Monocular_UC,61,0.049999999999999975,right,right,0.5662222389996714,correct,1
Block 3: Monocular_UC,62,-0.08999999999999997,left,left,0.22246004499993433,correct,1
Block 3: Monocular_UC,63,-0.07999999999999997,left,left,0.48546023300013985,correct,1
Block 3: Monocular_UC,64,0.03999999999999997,right,right,0.2631128949997219,correct,1
Block 3: Monocular_UC,65,-0.07999999999999997,right,left,0.31322358900024483,false,0
Block 3: Monocular_UC,66,-0.08999999999999997,left,left,0.1716185520003819,correct,1
Block 3: Monocular_UC,67,0.03999999999999997,right,right,0.3641727340000216,correct,1
Block 3: Monocular_UC,68,-0.08999999999999997,left,left,0.5461917220000032,correct,1
Block 3: Monocular_UC,69,0.02999999999999997,right,right,0.202018414000122,correct,1
Block 3: Monocular_UC,70,-0.07999999999999997,left,left,0.19193000799987203,correct,1
Block 3: Monocular_UC,71,0.02999999999999997,right,right,0.3845247679996646,correct,1
Block 3: Monocular_UC,72,-0.07999999999999997,left,left,0.23226606299976993,correct,1
Block 3: Monocular_UC,73,-0.06999999999999998,left,left,0.28283392499997717,correct,1
Block 3: Monocular_UC,74,-0.06999999999999998,left,left,0.2839450040000884,correct,1
Block 3: Monocular_UC,75,-0.05999999999999998,left,left,0.3335084920004192,correct,1
Block 3: Monocular_UC,76,-0.05999999999999998,left,left,0.6073779829998784,correct,1
Block 3: Monocular_UC,77,0.01999999999999997,left,right,0.7087223900002755,false,0
Block 3: Monocular_UC,78,0.02999999999999997,right,right,0.9008310180001899,correct,1
Block 3: Monocular_UC,79,0.02999999999999997,right,right,0.37448876300004486,correct,1
Block 3: Monocular_UC,80,-0.049999999999999975,left,left,0.5970600699997703,correct,1
Block 3: Monocular_UC,81,0.01999999999999997,right,right,0.354177922999952,correct,1
Block 3: Monocular_UC,82,0.01999999999999997,right,right,0.43494181899995965,correct,1
Block 3: Monocular_UC,83,0.009999999999999969,left,right,0.7083477289997973,false,0
Block 3: Monocular_UC,84,0.01999999999999997,right,right,0.2528729050000038,correct,1
Block 3: Monocular_UC,85,0.01999999999999997,right,right,0.33380481199992573,correct,1
Block 3: Monocular_UC,86,0.009999999999999969,left,right,0.3951240919996053,false,0
Block 3: Monocular_UC,87,0.01999999999999997,right,right,0.2729971009998735,correct,1
Block 3: Monocular_UC,88,-0.049999999999999975,left,left,0.3743575700000292,correct,1
Block 3: Monocular_UC,89,0.01999999999999997,right,right,0.32349429599980795,correct,1
Block 3: Monocular_UC,90,-0.03999999999999997,left,left,0.4751695350000773,correct,1
Block 3: Monocular_UC,91,0.009999999999999969,right,right,0.9615187019999212,correct,1
Block 3: Monocular_UC,92,0.009999999999999969,left,right,1.0217023150003115,false,0
Block 3: Monocular_UC,93,0.01999999999999997,right,right,0.18181397799980914,correct,1
Block 3: Monocular_UC,94,-0.03999999999999997,left,left,0.3845073849997789,correct,1
Block 3: Monocular_UC,95,-0.02999999999999997,right,left,0.5668594090002443,false,0
Block 3: Monocular_UC,96,-0.03999999999999997,left,left,0.161448640999879,correct,1
Block 3: Monocular_UC,97,-0.03999999999999997,left,left,0.4253027210002074,correct,1
Block 3: Monocular_UC,98,-0.02999999999999997,left,left,0.31361571900015406,correct,1
Block 3: Monocular_UC,99,0.01999999999999997,left,right,0.5975014730001931,false,0
Block 3: Monocular_UC,100,0.02999999999999997,right,right,0.24258135799982483,correct,1
Block 3: Monocular_UC,101,0.02999999999999997,right,right,0.2930682330002128,correct,1
Block 3: Monocular_UC,102,-0.02999999999999997,left,left,0.42480486799968276,correct,1
Block 3: Monocular_UC,103,0.01999999999999997,left,right,0.3644036849996155,false,0
Block 3: Monocular_UC,104,-0.01999999999999997,left,left,0.7897738170004232,correct,1
Block 3: Monocular_UC,105,0.02999999999999997,right,right,0.26281011599985504,correct,1
Block 3: Monocular_UC,106,-0.01999999999999997,left,left,0.4043080890000965,correct,1
Block 3: Monocular_UC,107,0.02999999999999997,right,right,0.2833034229997793,correct,1
Block 3: Monocular_UC,108,-0.009999999999999969,left,left,0.465430490000017,correct,1
Block 3: Monocular_UC,109,-0.009999999999999969,right,left,0.343771483999717,false,0
Block 3: Monocular_UC,110,0.01999999999999997,left,right,0.3438501000000542,false,0
Block 3: Monocular_UC,111,0.02999999999999997,right,right,0.29279919900000095,correct,1
Block 3: Monocular_UC,112,0.02999999999999997,left,right,0.2029958909997731,false,0
Block 3: Monocular_UC,113,-0.01999999999999997,left,left,0.8094376220001323,correct,1
Block 3: Monocular_UC,114,-0.01999999999999997,right,left,0.3840772629996536,false,0
Block 3: Monocular_UC,115,-0.02999999999999997,left,left,0.24251946399999724,correct,1
Block 3: Monocular_UC,116,-0.02999999999999997,left,left,0.4447864580001806,correct,1
Block 3: Monocular_UC,117,-0.01999999999999997,left,left,0.44539695200001006,correct,1
Block 3: Monocular_UC,118,0.03999999999999997,right,right,0.3449531090000164,correct,1
Block 3: Monocular_UC,119,-0.01999999999999997,left,left,0.5467623650001769,correct,1
Block 4: Monocular_C,0,0.2,right,right,0.7996615990000464,correct,1
Block 4: Monocular_C,1,-0.2,left,left,0.8903931670001839,correct,1
Block 4: Monocular_C,2,-0.2,left,left,0.3436926790000143,correct,1
Block 4: Monocular_C,3,0.2,right,right,0.252857732999928,correct,1
Block 4: Monocular_C,4,-0.19,left,left,0.1928858430001128,correct,1
Block 4: Monocular_C,5,-0.19,left,left,0.34368387099993924,correct,1
Block 4: Monocular_C,6,-0.18,left,left,0.2233639989999574,correct,1
Block 4: Monocular_C,7,-0.18,left,left,0.26273467000009987,correct,1
Block 4: Monocular_C,8,-0.16999999999999998,left,left,0.19184876299959797,correct,1
Block 4: Monocular_C,9,-0.16999999999999998,left,left,0.22215650299995104,correct,1
Block 4: Monocular_C,10,0.19,left,right,0.17151965800030666,false,0
Block 4: Monocular_C,11,-0.15999999999999998,left,left,0.3438660520000667,correct,1
Block 4: Monocular_C,12,0.2,right,right,0.15145667399974627,correct,1
Block 4: Monocular_C,13,0.2,right,right,0.22232451400032005,correct,1
Block 4: Monocular_C,14,-0.15999999999999998,left,left,0.41512975499972526,correct,1
Block 4: Monocular_C,15,-0.14999999999999997,left,left,0.5364191240000764,correct,1
Block 4: Monocular_C,16,0.19,right,right,0.4960825329999352,correct,1
Block 4: Monocular_C,17,-0.14999999999999997,left,left,0.3441006549996928,correct,1
Block 4: Monocular_C,18,0.19,right,right,0.2122029649999604,correct,1
Block 4: Monocular_C,19,-0.13999999999999996,left,left,0.17157285600023897,correct,1
Block 4: Monocular_C,20,0.18,right,right,0.24257963799982463,correct,1
Block 4: Monocular_C,21,0.18,right,right,0.1822249050001119,correct,1
Block 4: Monocular_C,22,-0.13999999999999996,left,left,0.3436767170001076,correct,1
Block 4: Monocular_C,23,0.16999999999999998,right,right,0.22245639199991274,correct,1
Block 4: Monocular_C,24,0.16999999999999998,right,right,0.2022786239999732,correct,1
Block 4: Monocular_C,25,0.15999999999999998,right,right,0.2426373660000536,correct,1
Block 4: Monocular_C,26,-0.12999999999999995,left,left,0.32354574600003616,correct,1
Block 4: Monocular_C,27,0.15999999999999998,right,right,0.14143280300004335,correct,1
Block 4: Monocular_C,28,0.14999999999999997,right,right,0.31351295000013124,correct,1
Block 4: Monocular_C,29,0.14999999999999997,right,right,0.26278545900004247,correct,1
Block 4: Monocular_C,30,0.13999999999999996,left,right,0.252892915999837,false,0
Block 4: Monocular_C,31,0.14999999999999997,right,right,0.3141017120001379,correct,1
Block 4: Monocular_C,32,-0.12999999999999995,left,left,0.3845416300000579,correct,1
Block 4: Monocular_C,33,0.14999999999999997,right,right,0.2121413479999319,correct,1
Block 4: Monocular_C,34,-0.11999999999999995,left,left,0.3233929680000074,correct,1
Block 4: Monocular_C,35,-0.11999999999999995,left,left,0.5466586309999002,correct,1
Block 4: Monocular_C,36,0.13999999999999996,right,right,0.22206807399970785,correct,1
Block 4: Monocular_C,37,0.13999999999999996,right,right,0.2931263810000928,correct,1
Block 4: Monocular_C,38,-0.10999999999999996,left,left,0.2930773940001927,correct,1
Block 4: Monocular_C,39,0.12999999999999995,right,right,0.23282954000023892,correct,1
Block 4: Monocular_C,40,0.12999999999999995,right,right,0.30333152799994423,correct,1
Block 4: Monocular_C,41,0.11999999999999995,right,right,0.29332644900023297,correct,1
Block 4: Monocular_C,42,-0.10999999999999996,left,left,0.40457172400010677,correct,1
Block 4: Monocular_C,43,0.11999999999999995,right,right,0.20194525900024018,correct,1
Block 4: Monocular_C,44,-0.09999999999999996,left,left,0.20230671200033612,correct,1
Block 4: Monocular_C,45,0.10999999999999996,right,right,0.2933248959998309,correct,1
Block 4: Monocular_C,46,-0.09999999999999996,left,left,0.20201449500018498,correct,1
Block 4: Monocular_C,47,-0.08999999999999997,left,left,0.35389394200001334,correct,1
Block 4: Monocular_C,48,-0.08999999999999997,left,left,0.1918974390000585,correct,1
Block 4: Monocular_C,49,0.10999999999999996,right,right,0.2731157110001732,correct,1
Block 4: Monocular_C,50,-0.07999999999999997,left,left,0.21229279599992879,correct,1
Block 4: Monocular_C,51,-0.07999999999999997,left,left,0.19180177399994136,correct,1
Block 4: Monocular_C,52,0.09999999999999996,right,right,0.27281033999997817,correct,1
Block 4: Monocular_C,53,-0.06999999999999998,left,left,0.2122493699998813,correct,1
Block 4: Monocular_C,54,0.09999999999999996,right,right,0.24233298199987985,correct,1
Block 4: Monocular_C,55,0.08999999999999997,left,right,0.16193634899991594,false,0
Block 4: Monocular_C,56,-0.06999999999999998,left,left,0.1514902849999089,correct,1
Block 4: Monocular_C,57,-0.05999999999999998,left,left,0.34371634000035556,correct,1
Block 4: Monocular_C,58,0.09999999999999996,right,right,0.677952299000026,correct,1
Block 4: Monocular_C,59,0.09999999999999996,right,right,0.1516049249999014,correct,1
Block 4: Monocular_C,60,0.08999999999999997,left,right,0.3538568940002733,false,0
Block 4: Monocular_C,61,-0.05999999999999998,left,left,0.13120688700018945,correct,1
Block 4: Monocular_C,62,0.09999999999999996,right,right,0.15121908199989775,correct,1
Block 4: Monocular_C,63,-0.049999999999999975,right,left,0.37500782999995863,false,0
Block 4: Monocular_C,64,-0.05999999999999998,left,left,0.222302930999831,correct,1
Block 4: Monocular_C,65,-0.05999999999999998,right,left,0.3238166569999521,false,0
Block 4: Monocular_C,66,0.09999999999999996,right,right,0.33390535800026555,correct,1
Block 4: Monocular_C,67,-0.06999999999999998,left,left,0.2123788600001717,correct,1
Block 4: Monocular_C,68,0.08999999999999997,right,right,0.23232162400017842,correct,1
Block 4: Monocular_C,69,-0.06999999999999998,left,left,0.41494760500017946,correct,1
Block 4: Monocular_C,70,-0.05999999999999998,left,left,0.5468495549998806,correct,1
Block 4: Monocular_C,71,0.08999999999999997,right,right,0.27320675200007827,correct,1
Block 4: Monocular_C,72,-0.05999999999999998,left,left,0.4554322009998941,correct,1
Block 4: Monocular_C,73,0.07999999999999997,right,right,0.6273560720001115,correct,1
Block 4: Monocular_C,74,0.07999999999999997,right,right,0.5871436489996995,correct,1
Block 4: Monocular_C,75,0.06999999999999998,right,right,0.3133365489998141,correct,1
Block 4: Monocular_C,76,-0.049999999999999975,left,left,0.29322004599998763,correct,1
Block 4: Monocular_C,77,-0.049999999999999975,left,left,0.2730277269997714,correct,1
Block 4: Monocular_C,78,-0.03999999999999997,left,left,0.37460643799977333,correct,1
Block 4: Monocular_C,79,0.06999999999999998,right,right,0.2730151180003304,correct,1
Block 4: Monocular_C,80,0.05999999999999998,right,right,0.3848955969997405,correct,1
Block 4: Monocular_C,81,0.05999999999999998,right,right,0.37453238199987027,correct,1
Block 4: Monocular_C,82,0.049999999999999975,right,right,0.27295830499997464,correct,1
Block 4: Monocular_C,83,-0.03999999999999997,left,left,0.3943268969997007,correct,1
Block 4: Monocular_C,84,-0.02999999999999997,left,left,0.3845183929997802,correct,1
Block 4: Monocular_C,85,-0.02999999999999997,left,left,0.425125067999943,correct,1
Block 4: Monocular_C,86,0.049999999999999975,right,right,0.5765191430000414,correct,1
Block 4: Monocular_C,87,-0.01999999999999997,left,left,0.2527790070002993,correct,1
Block 4: Monocular_C,88,0.03999999999999997,left,right,0.3642441079996388,false,0
Block 4: Monocular_C,89,-0.01999999999999997,right,left,0.11088012599975627,false,0
Block 4: Monocular_C,90,0.049999999999999975,left,right,0.3845723439999347,false,0
Block 4: Monocular_C,91,0.05999999999999998,left,right,0.17173881799999435,false,0
Block 4: Monocular_C,92,-0.02999999999999997,left,left,0.3743501119997745,correct,1
Block 4: Monocular_C,93,0.06999999999999998,right,right,0.3639916409997568,correct,1
Block 4: Monocular_C,94,0.06999999999999998,right,right,0.3136769540001296,correct,1
Block 4: Monocular_C,95,0.05999999999999998,right,right,0.3841541120000329,correct,1
Block 4: Monocular_C,96,-0.02999999999999997,right,left,0.5563691849997667,false,0
Block 4: Monocular_C,97,-0.03999999999999997,left,left,0.6978001279999262,correct,1
Block 4: Monocular_C,98,-0.03999999999999997,left,left,0.8090678630001094,correct,1
Block 4: Monocular_C,99,-0.02999999999999997,left,left,0.5664189340000121,correct,1
Block 4: Monocular_C,100,0.05999999999999998,right,right,0.44502618000024086,correct,1
Block 4: Monocular_C,101,0.049999999999999975,right,right,0.33381566099978954,correct,1
Block 4: Monocular_C,102,0.049999999999999975,right,right,0.34395492000021477,correct,1
Block 4: Monocular_C,103,-0.02999999999999997,left,left,0.6482030580000355,correct,1
Block 4: Monocular_C,104,-0.01999999999999997,left,left,0.8106603870000981,correct,1
Block 4: Monocular_C,105,-0.01999999999999997,right,left,0.44500806399992143,false,0
Block 4: Monocular_C,106,0.03999999999999997,right,right,0.48559540299993387,correct,1
Block 4: Monocular_C,107,-0.02999999999999997,right,left,0.9917871979996562,false,0
Block 4: Monocular_C,108,0.03999999999999997,left,right,0.40483215799986283,false,0
Block 4: Monocular_C,109,-0.03999999999999997,left,left,0.6478579399999944,correct,1
Block 4: Monocular_C,110,-0.03999999999999997,left,left,0.49701921199994104,correct,1
Block 4: Monocular_C,111,0.049999999999999975,right,right,0.6982767879999301,correct,1
Block 4: Monocular_C,112,-0.02999999999999997,left,left,0.9416549500001565,correct,1
Block 4: Monocular_C,113,-0.02999999999999997,left,left,0.577155939000022,correct,1
Block 4: Monocular_C,114,-0.01999999999999997,left,left,0.597148414000003,correct,1
Block 4: Monocular_C,115,0.049999999999999975,right,right,0.3944081740000911,correct,1
Block 4: Monocular_C,116,-0.01999999999999997,left,left,1.1441277220001211,correct,1
Block 4: Monocular_C,117,0.03999999999999997,right,right,0.41553643399993234,correct,1
Block 4: Monocular_C,118,0.03999999999999997,right,right,0.58671330199968,correct,1
Block 4: Monocular_C,119,0.02999999999999997,left,right,0.5569487420002588,false,0
