label,trials,offset,keys,direction,response_time,accuracy,response_numeric
Block 1: Binocular_Standard,0,0.2,right,right,0.7691601689998606,correct,1
Block 1: Binocular_Standard,1,-0.2,left,left,0.4348004809999111,correct,1
Block 1: Binocular_Standard,2,0.2,right,right,0.445378466999955,correct,1
Block 1: Binocular_Standard,3,0.19,right,right,0.7084596479999163,correct,1
Block 1: Binocular_Standard,4,0.19,right,right,0.4752983700000186,correct,1
Block 1: Binocular_Standard,5,-0.2,left,left,0.3942858390000765,correct,1
Block 1: Binocular_Standard,6,-0.19,left,left,0.5058246349999536,correct,1
Block 1: Binocular_Standard,7,0.18,right,right,0.3645004869999866,correct,1
Block 1: Binocular_Standard,8,0.18,right,right,0.5459654400001455,correct,1
Block 1: Binocular_Standard,9,-0.19,left,left,0.35397470399993836,correct,1
Block 1: Binocular_Standard,10,0.16999999999999998,right,right,0.33431273699989106,correct,1
Block 1: Binocular_Standard,11,0.16999999999999998,right,right,0.5462758839998969,correct,1
Block 1: Binocular_Standard,12,0.15999999999999998,left,right,0.7998117910001383,false,0
Block 1: Binocular_Standard,13,0.16999999999999998,right,right,0.7188384840001163,correct,1
Block 1: Binocular_Standard,14,0.16999999999999998,right,right,1.1936726499998258,correct,1
Block 1: Binocular_Standard,15,0.15999999999999998,right,right,0.5870776040001147,correct,1
Block 1: Binocular_Standard,16,-0.18,left,left,0.4549015849997886,correct,1
Block 1: Binocular_Standard,17,-0.18,left,left,0.48559906200034675,correct,1
Block 1: Binocular_Standard,18,-0.16999999999999998,left,left,0.8606083169997873,correct,1
Block 1: Binocular_Standard,19,0.15999999999999998,right,right,0.4655077639999945,correct,1
Block 1: Binocular_Standard,20,-0.16999999999999998,left,left,0.3034398049999254,correct,1
Block 1: Binocular_Standard,21,0.14999999999999997,right,right,0.5464904890000071,correct,1
Block 1: Binocular_Standard,22,-0.15999999999999998,left,left,0.3741714600000705,correct,1
Block 1: Binocular_Standard,23,0.14999999999999997,right,right,0.820038206999925,correct,1
Block 1: Binocular_Standard,24,0.13999999999999996,right,right,0.7689608069999849,correct,1
Block 1: Binocular_Standard,25,-0.15999999999999998,left,left,0.5564017060000879,correct,1
Block 1: Binocular_Standard,26,0.13999999999999996,right,right,0.5765084630002093,correct,1
Block 1: Binocular_Standard,27,0.12999999999999995,right,right,1.6599500550000812,correct,1
Block 1: Binocular_Standard,28,-0.14999999999999997,left,left,0.4143623859999934,correct,1
Block 1: Binocular_Standard,29,-0.14999999999999997,left,left,0.43485887999986517,correct,1
Block 1: Binocular_Standard,30,0.12999999999999995,right,right,0.6487756190003893,correct,1
Block 1: Binocular_Standard,31,0.11999999999999995,right,right,0.7386475690000225,correct,1
Block 1: Binocular_Standard,32,0.11999999999999995,right,right,4.081302955999945,correct,1
Block 1: Binocular_Standard,33,-0.13999999999999996,left,left,0.6279210089996923,correct,1
Block 1: Binocular_Standard,34,-0.13999999999999996,left,left,0.7591410929999256,correct,1
Block 1: Binocular_Standard,35,0.10999999999999996,right,right,2.560599959999763,correct,1
Block 1: Binocular_Standard,36,-0.12999999999999995,left,left,0.6688649980001173,correct,1
Block 1: Binocular_Standard,37,-0.12999999999999995,left,left,0.8599298459998863,correct,1
Block 1: Binocular_Standard,38,0.10999999999999996,right,right,2.550686368999777,correct,1
Block 1: Binocular_Standard,39,-0.11999999999999995,left,left,2.541038759999992,correct,1
Block 1: Binocular_Standard,40,0.09999999999999996,right,right,0.6886834380002256,correct,1
Block 1: Binocular_Standard,41,0.09999999999999996,right,right,0.7998729969999658,correct,1
Block 1: Binocular_Standard,42,0.08999999999999997,right,right,1.3964894679997997,correct,1
Block 1: Binocular_Standard,43,-0.11999999999999995,left,left,1.8336465830002453,correct,1
Block 1: Binocular_Standard,44,-0.10999999999999996,left,left,0.48504591599976266,correct,1
Block 1: Binocular_Standard,45,-0.10999999999999996,left,left,0.7990743889999976,correct,1
Block 1: Binocular_Standard,46,0.08999999999999997,right,right,0.9921566959997108,correct,1
Block 1: Binocular_Standard,47,-0.09999999999999996,left,left,0.6678331050002271,correct,1
Block 1: Binocular_Standard,48,0.07999999999999997,right,right,0.6979881160000332,correct,1
Block 1: Binocular_Standard,49,-0.09999999999999996,left,left,0.6376663770001869,correct,1
Block 1: Binocular_Standard,50,0.07999999999999997,right,right,1.478057472999808,correct,1
Block 1: Binocular_Standard,51,-0.08999999999999997,left,left,0.607108688000153,correct,1
Block 1: Binocular_Standard,52,-0.08999999999999997,left,left,0.7699868969998533,correct,1
Block 1: Binocular_Standard,53,0.06999999999999998,right,right,0.6070152539996343,correct,1
Block 1: Binocular_Standard,54,-0.07999999999999997,left,left,0.47557925299997805,correct,1
Block 1: Binocular_Standard,55,0.06999999999999998,right,right,0.5666708329999892,correct,1
Block 1: Binocular_Standard,56,-0.07999999999999997,left,left,0.46528506999993624,correct,1
Block 1: Binocular_Standard,57,-0.06999999999999998,left,left,0.6270893730002172,correct,1
Block 1: Binocular_Standard,58,-0.06999999999999998,right,left,1.5795786930002578,false,0
Block 1: Binocular_Standard,59,0.05999999999999998,right,right,1.6904560450002464,correct,1
Block 1: Binocular_Standard,60,0.05999999999999998,right,right,1.0534755210001094,correct,1
Block 1: Binocular_Standard,61,0.049999999999999975,right,right,0.9111998600001243,correct,1
Block 1: Binocular_Standard,62,-0.07999999999999997,left,left,0.5365750930000104,correct,1
Block 1: Binocular_Standard,63,0.049999999999999975,right,right,0.5764411310001378,correct,1
Block 1: Binocular_Standard,64,0.03999999999999997,right,right,0.7993471540003156,correct,1
Block 1: Binocular_Standard,65,-0.07999999999999997,left,left,0.4752316399999472,correct,1
Block 1: Binocular_Standard,66,-0.06999999999999998,left,left,0.6069334570001956,correct,1
Block 1: Binocular_Standard,67,-0.06999999999999998,left,left,0.6176626189999297,correct,1
Block 1: Binocular_Standard,68,0.03999999999999997,right,right,1.2245403859997168,correct,1
Block 1: Binocular_Standard,69,-0.05999999999999998,left,left,0.42460201099993355,correct,1
Block 1: Binocular_Standard,70,-0.05999999999999998,left,left,0.5464112849999765,correct,1
Block 1: Binocular_Standard,71,-0.049999999999999975,left,left,0.5871102040000551,correct,1
Block 1: Binocular_Standard,72,0.02999999999999997,right,right,1.2046179849999135,correct,1
Block 1: Binocular_Standard,73,-0.049999999999999975,left,left,0.5169825480002146,correct,1
Block 1: Binocular_Standard,74,-0.03999999999999997,left,left,0.8599635730001864,correct,1
Block 1: Binocular_Standard,75,-0.03999999999999997,left,left,0.5864767559996835,correct,1
Block 1: Binocular_Standard,76,0.02999999999999997,right,right,0.9514635000000453,correct,1
Block 1: Binocular_Standard,77,-0.02999999999999997,left,left,0.4349767849998898,correct,1
Block 1: Binocular_Standard,78,-0.02999999999999997,left,left,0.6271650970002156,correct,1
Block 1: Binocular_Standard,79,-0.01999999999999997,right,left,0.8700082959999236,false,0
Block 1: Binocular_Standard,80,-0.02999999999999997,left,left,0.8199453950001043,correct,1
Block 1: Binocular_Standard,81,0.01999999999999997,right,right,1.1533761539999432,correct,1
Block 1: Binocular_Standard,82,0.01999999999999997,left,right,0.6174072919998252,false,0
Block 1: Binocular_Standard,83,-0.02999999999999997,right,left,0.7992672649997985,false,0
Block 1: Binocular_Standard,84,-0.03999999999999997,left,left,0.779425670999899,correct,1
Block 1: Binocular_Standard,85,0.02999999999999997,left,right,0.7489725929999622,false,0
Block 1: Binocular_Standard,86,-0.03999999999999997,right,left,1.8023890419999589,false,0
Block 1: Binocular_Standard,87,-0.049999999999999975,left,left,0.688941732999865,correct,1
Block 1: Binocular_Standard,88,0.03999999999999997,right,right,1.173855363000257,correct,1
Block 1: Binocular_Standard,89,0.03999999999999997,right,right,1.164329448999979,correct,1
Block 1: Binocular_Standard,90,-0.049999999999999975,left,left,0.6174677889998748,correct,1
Block 1: Binocular_Standard,91,0.02999999999999997,left,right,1.5491362840002694,false,0
Block 1: Binocular_Standard,92,-0.03999999999999997,left,left,2.075634415999957,correct,1
Block 1: Binocular_Standard,93,-0.03999999999999997,left,left,0.8198536239997338,correct,1
Block 1: Binocular_Standard,94,0.03999999999999997,right,right,0.9819704219999039,correct,1
Block 1: Binocular_Standard,95,-0.02999999999999997,left,left,0.5769756139998208,correct,1
Block 1: Binocular_Standard,96,-0.02999999999999997,left,left,0.6883831039999677,correct,1
Block 1: Binocular_Standard,97,0.03999999999999997,left,right,0.7288264520002485,false,0
Block 1: Binocular_Standard,98,0.049999999999999975,left,right,2.431352390000029,false,0
Block 1: Binocular_Standard,99,0.05999999999999998,right,right,0.6585933440001099,correct,1
Block 1: Binocular_Standard,100,-0.01999999999999997,left,left,0.5359451290000834,correct,1
Block 1: Binocular_Standard,101,-0.01999999999999997,left,left,0.7187950569996246,correct,1
Block 1: Binocular_Standard,102,0.05999999999999998,right,right,0.45588460099997974,correct,1
Block 1: Binocular_Standard,103,-0.009999999999999969,left,left,0.6984082570002101,correct,1
Block 1: Binocular_Standard,104,-0.009999999999999969,left,left,0.8903217390002283,correct,1
Block 1: Binocular_Standard,105,0.049999999999999975,right,right,0.42498376999992615,correct,1
Block 1: Binocular_Standard,106,0.049999999999999975,right,right,0.6475006810001105,correct,1
Block 1: Binocular_Standard,107,0.03999999999999997,right,right,0.728808012999707,correct,1
Block 1: Binocular_Standard,108,3.122502256758253e-17,left,left,1.3971125160001066,correct,1
Block 1: Binocular_Standard,109,3.122502256758253e-17,right,left,1.184175931000027,false,0
Block 1: Binocular_Standard,110,0.03999999999999997,left,right,1.2647554569998647,false,0
Block 1: Binocular_Standard,111,-0.009999999999999969,left,left,0.7993756189998749,correct,1
Block 1: Binocular_Standard,112,-0.009999999999999969,left,left,0.6377727129997766,correct,1
Block 1: Binocular_Standard,113,0.049999999999999975,right,right,0.6376827519998187,correct,1
Block 1: Binocular_Standard,114,0.049999999999999975,right,right,1.1032319070000085,correct,1
Block 1: Binocular_Standard,115,0.03999999999999997,right,right,0.7894799810001132,correct,1
Block 1: Binocular_Standard,116,0.03999999999999997,right,right,0.8704421080001339,correct,1
Block 1: Binocular_Standard,117,0.02999999999999997,right,right,0.758881090000159,correct,1
Block 1: Binocular_Standard,118,0.02999999999999997,right,right,1.032647925999754,correct,1
Block 1: Binocular_Standard,119,3.122502256758253e-17,right,left,0.9114449660000901,false,0
Block 2: Binocular_Crowded,0,-0.2,left,left,0.8096339109997643,correct,1
Block 2: Binocular_Crowded,1,0.2,right,right,0.44555139500016594,correct,1
Block 2: Binocular_Crowded,2,0.2,right,right,0.40464540399989346,correct,1
Block 2: Binocular_Crowded,3,0.19,right,right,0.5763351539999348,correct,1
Block 2: Binocular_Crowded,4,-0.2,left,left,0.46522802000026786,correct,1
Block 2: Binocular_Crowded,5,-0.19,left,left,0.5765359430001809,correct,1
Block 2: Binocular_Crowded,6,0.19,right,right,0.40447995299973627,correct,1
Block 2: Binocular_Crowded,7,0.18,right,right,0.5058459299998503,correct,1
Block 2: Binocular_Crowded,8,0.18,right,right,0.4555281789998844,correct,1
Block 2: Binocular_Crowded,9,0.16999999999999998,right,right,0.41439009099985924,correct,1
Block 2: Binocular_Crowded,10,0.16999999999999998,right,right,0.46555955800022275,correct,1
Block 2: Binocular_Crowded,11,0.15999999999999998,right,right,0.4853839689999404,correct,1
Block 2: Binocular_Crowded,12,0.15999999999999998,right,right,0.5463032120001117,correct,1
Block 2: Binocular_Crowded,13,0.14999999999999997,right,right,0.5058104109998567,correct,1
Block 2: Binocular_Crowded,14,-0.19,left,left,0.5059614150000016,correct,1
Block 2: Binocular_Crowded,15,0.14999999999999997,right,right,0.6273122100001274,correct,1
Block 2: Binocular_Crowded,16,-0.18,right,left,0.8400817310002822,false,0
Block 2: Binocular_Crowded,17,0.13999999999999996,left,right,0.7592040439999437,false,0
Block 2: Binocular_Crowded,18,0.14999999999999997,right,right,0.7090472979998594,correct,1
Block 2: Binocular_Crowded,19,-0.19,left,left,0.6577939759999936,correct,1
Block 2: Binocular_Crowded,20,-0.19,left,left,0.5768877869995777,correct,1
Block 2: Binocular_Crowded,21,-0.18,left,left,0.6169052390000616,correct,1
Block 2: Binocular_Crowded,22,0.14999999999999997,right,right,0.6879073840000274,correct,1
Block 2: Binocular_Crowded,23,-0.18,left,left,0.7593227769998521,correct,1
Block 2: Binocular_Crowded,24,0.13999999999999996,right,right,1.123666940000021,correct,1
Block 2: Binocular_Crowded,25,0.13999999999999996,right,right,0.525962731999698,correct,1
Block 2: Binocular_Crowded,26,-0.16999999999999998,left,left,0.7488811009998244,correct,1
Block 2: Binocular_Crowded,27,0.12999999999999995,right,right,0.5564167859997724,correct,1
Block 2: Binocular_Crowded,28,0.12999999999999995,right,right,0.6483536160003496,correct,1
Block 2: Binocular_Crowded,29,-0.16999999999999998,left,left,0.5368115999999645,correct,1
Block 2: Binocular_Crowded,30,-0.15999999999999998,right,left,0.6881382809997376,false,0
Block 2: Binocular_Crowded,31,0.11999999999999995,right,right,0.8509571629997481,correct,1
Block 2: Binocular_Crowded,32,-0.16999999999999998,left,left,0.5873200169999109,correct,1
Block 2: Binocular_Crowded,33,0.11999999999999995,right,right,0.7692594099999042,correct,1
Block 2: Binocular_Crowded,34,0.10999999999999996,right,right,0.8603487619998305,correct,1
Block 2: Binocular_Crowded,35,0.10999999999999996,right,right,0.7788947979997829,correct,1
Block 2: Binocular_Crowded,36,-0.16999999999999998,left,left,0.6274327050000466,correct,1
Block 2: Binocular_Crowded,37,-0.15999999999999998,left,left,0.8799265429997831,correct,1
Block 2: Binocular_Crowded,38,-0.15999999999999998,left,left,0.5056061189998218,correct,1
Block 2: Binocular_Crowded,39,-0.14999999999999997,left,left,0.9612305370001195,correct,1
Block 2: Binocular_Crowded,40,-0.14999999999999997,left,left,0.6173865460000343,correct,1
Block 2: Binocular_Crowded,41,-0.13999999999999996,left,left,0.7081830919996719,correct,1
Block 2: Binocular_Crowded,42,0.09999999999999996,right,right,0.9006387039999026,correct,1
Block 2: Binocular_Crowded,43,0.09999999999999996,right,right,1.4168357749999814,correct,1
Block 2: Binocular_Crowded,44,0.08999999999999997,left,right,0.5565389989997129,false,0
Block 2: Binocular_Crowded,45,0.09999999999999996,right,right,0.6780377439999938,correct,1
Block 2: Binocular_Crowded,46,-0.13999999999999996,left,left,0.6173236740000903,correct,1
Block 2: Binocular_Crowded,47,-0.12999999999999995,left,left,0.718210886000179,correct,1
Block 2: Binocular_Crowded,48,-0.12999999999999995,left,left,0.8713080369998352,correct,1
Block 2: Binocular_Crowded,49,0.09999999999999996,right,right,0.5867239409999456,correct,1
Block 2: Binocular_Crowded,50,0.08999999999999997,right,right,0.7391318380000484,correct,1
Block 2: Binocular_Crowded,51,0.08999999999999997,right,right,2.9476682590002383,correct,1
Block 2: Binocular_Crowded,52,0.07999999999999997,right,right,0.556937392999771,correct,1
Block 2: Binocular_Crowded,53,-0.11999999999999995,right,left,0.9713971009996385,false,0
Block 2: Binocular_Crowded,54,-0.12999999999999995,left,left,1.0532951079999293,correct,1
Block 2: Binocular_Crowded,55,0.07999999999999997,right,right,0.8298742439997113,correct,1
Block 2: Binocular_Crowded,56,-0.12999999999999995,left,left,0.5465908370001671,correct,1
Block 2: Binocular_Crowded,57,-0.11999999999999995,left,left,2.3292551860004096,correct,1
Block 2: Binocular_Crowded,58,0.06999999999999998,right,right,1.0928907820002678,correct,1
Block 2: Binocular_Crowded,59,-0.11999999999999995,left,left,0.6376383540000461,correct,1
Block 2: Binocular_Crowded,60,0.06999999999999998,right,right,0.8601564069999768,correct,1
Block 2: Binocular_Crowded,61,-0.10999999999999996,left,left,0.6273157089999586,correct,1
Block 2: Binocular_Crowded,62,-0.10999999999999996,left,left,0.5260256860001391,correct,1
Block 2: Binocular_Crowded,63,-0.09999999999999996,left,left,0.5564948390001518,correct,1
Block 2: Binocular_Crowded,64,-0.09999999999999996,left,left,0.7184840260001693,correct,1
Block 2: Binocular_Crowded,65,-0.08999999999999997,right,left,0.8399215389999881,false,0
Block 2: Binocular_Crowded,66,0.05999999999999998,left,right,0.8302935790002266,false,0
Block 2: Binocular_Crowded,67,0.06999999999999998,right,right,1.123333508000087,correct,1
Block 2: Binocular_Crowded,68,-0.09999999999999996,left,left,0.6981621609998001,correct,1
Block 2: Binocular_Crowded,69,0.06999999999999998,left,right,1.3459392719996686,false,0
Block 2: Binocular_Crowded,70,-0.09999999999999996,right,left,0.7489948630000072,false,0
Block 2: Binocular_Crowded,71,-0.10999999999999996,left,left,0.48561948799988386,correct,1
Block 2: Binocular_Crowded,72,-0.10999999999999996,left,left,0.6986543459997847,correct,1
Block 2: Binocular_Crowded,73,0.07999999999999997,left,right,0.7893795249997311,false,0
Block 2: Binocular_Crowded,74,0.08999999999999997,right,right,0.6882907529998192,correct,1
Block 2: Binocular_Crowded,75,0.08999999999999997,right,right,0.6069887150001705,correct,1
Block 2: Binocular_Crowded,76,0.07999999999999997,right,right,0.5561003770003481,correct,1
Block 2: Binocular_Crowded,77,0.07999999999999997,right,right,0.6578963689999,correct,1
Block 2: Binocular_Crowded,78,-0.09999999999999996,left,left,0.7385086089998367,correct,1
Block 2: Binocular_Crowded,79,0.06999999999999998,right,right,0.6273559709998153,correct,1
Block 2: Binocular_Crowded,80,0.06999999999999998,right,right,0.7792220579999594,correct,1
Block 2: Binocular_Crowded,81,-0.09999999999999996,left,left,0.566345278999961,correct,1
Block 2: Binocular_Crowded,82,-0.08999999999999997,left,left,0.5768228970000564,correct,1
Block 2: Binocular_Crowded,83,0.05999999999999998,left,right,0.9814685369997278,false,0
Block 2: Binocular_Crowded,84,0.06999999999999998,right,right,0.697573784999804,correct,1
Block 2: Binocular_Crowded,85,-0.08999999999999997,left,left,0.6577530989998195,correct,1
Block 2: Binocular_Crowded,86,-0.07999999999999997,left,left,0.9816965750001145,correct,1
Block 2: Binocular_Crowded,87,-0.07999999999999997,left,left,0.6272697589997733,correct,1
Block 2: Binocular_Crowded,88,0.06999999999999998,left,right,0.7384846019999713,false,0
Block 2: Binocular_Crowded,89,-0.06999999999999998,right,left,0.6881074399998397,false,0
Block 2: Binocular_Crowded,90,-0.07999999999999997,left,left,1.094142373000068,correct,1
Block 2: Binocular_Crowded,91,-0.07999999999999997,left,left,0.7891974350000055,correct,1
Block 2: Binocular_Crowded,92,-0.06999999999999998,left,left,0.9111504210000021,correct,1
Block 2: Binocular_Crowded,93,0.07999999999999997,right,right,0.7084329009999237,correct,1
Block 2: Binocular_Crowded,94,-0.06999999999999998,left,left,0.6274250429996755,correct,1
Block 2: Binocular_Crowded,95,-0.05999999999999998,left,left,0.9814869980000367,correct,1
Block 2: Binocular_Crowded,96,-0.05999999999999998,left,left,0.6077998289997595,correct,1
Block 2: Binocular_Crowded,97,0.07999999999999997,right,right,1.0830057670000315,correct,1
Block 2: Binocular_Crowded,98,-0.049999999999999975,left,left,0.8600887870002225,correct,1
Block 2: Binocular_Crowded,99,0.06999999999999998,left,right,1.2450847119998798,false,0
Block 2: Binocular_Crowded,100,-0.049999999999999975,right,left,0.9614673860000948,false,0
Block 2: Binocular_Crowded,101,-0.05999999999999998,left,left,0.29315774499991676,correct,1
Block 2: Binocular_Crowded,102,0.07999999999999997,left,right,1.04227689299978,false,0
Block 2: Binocular_Crowded,103,0.08999999999999997,right,right,0.9208240630000546,correct,1
Block 2: Binocular_Crowded,104,-0.05999999999999998,left,left,0.6881578339998669,correct,1
Block 2: Binocular_Crowded,105,-0.049999999999999975,right,left,1.6802723340001648,false,0
Block 2: Binocular_Crowded,106,0.08999999999999997,right,right,0.8501790259997506,correct,1
Block 2: Binocular_Crowded,107,0.07999999999999997,right,right,0.9821512590001475,correct,1
Block 2: Binocular_Crowded,108,-0.05999999999999998,right,left,1.7612585550000404,false,0
Block 2: Binocular_Crowded,109,-0.06999999999999998,left,left,0.7084805360000246,correct,1
Block 2: Binocular_Crowded,110,0.07999999999999997,right,right,1.3973283529999208,correct,1
Block 2: Binocular_Crowded,111,-0.06999999999999998,left,left,0.8304898549999962,correct,1
Block 2: Binocular_Crowded,112,0.06999999999999998,left,right,1.5384419659999367,false,0
Block 2: Binocular_Crowded,113,0.07999999999999997,right,right,0.7391263300000901,correct,1
Block 2: Binocular_Crowded,114,-0.05999999999999998,left,left,0.6776247490001879,correct,1
Block 2: Binocular_Crowded,115,-0.05999999999999998,right,left,1.194670190999659,false,0
Block 2: Binocular_Crowded,116,0.07999999999999997,right,right,1.834362546000193,correct,1
Block 2: Binocular_Crowded,117,-0.06999999999999998,left,left,0.6884569190001457,correct,1
Block 2: Binocular_Crowded,118,0.06999999999999998,right,right,0.6781155810003838,correct,1
Block 2: Binocular_Crowded,119,0.06999999999999998,right,right,0.7806250430003274,correct,1
Block 3: Monocular_Standard,0,-0.2,left,left,0.5054000119998818,correct,1
Block 3: Monocular_Standard,1,-0.2,left,left,0.4149845550000464,correct,1
Block 3: Monocular_Standard,2,-0.19,left,left,0.5463884060000055,correct,1
Block 3: Monocular_Standard,3,-0.19,left,left,0.40453798199996527,correct,1
Block 3: Monocular_Standard,4,-0.18,left,left,1.0119616799997857,correct,1
Block 3: Monocular_Standard,5,-0.18,left,left,0.6173408990002827,correct,1
Block 3: Monocular_Standard,6,-0.16999999999999998,left,left,0.5667819300001611,correct,1
Block 3: Monocular_Standard,7,0.2,left,right,14.79706229500016,false,0
Block 3: Monocular_Standard,8,0.21000000000000002,right,right,0.6775271490000705,correct,1
Block 3: Monocular_Standard,9,0.21000000000000002,right,right,0.6274516029998267,correct,1
Block 3: Monocular_Standard,10,-0.16999999999999998,left,left,0.5461517339999773,correct,1
Block 3: Monocular_Standard,11,0.2,right,right,0.48551648900001965,correct,1
Block 3: Monocular_Standard,12,-0.15999999999999998,left,left,0.8803909299999759,correct,1
Block 3: Monocular_Standard,13,-0.15999999999999998,left,left,0.5864818200002446,correct,1
Block 3: Monocular_Standard,14,0.2,right,right,1.1533130239999991,correct,1
Block 3: Monocular_Standard,15,-0.14999999999999997,left,left,0.6478640870000163,correct,1
Block 3: Monocular_Standard,16,-0.14999999999999997,left,left,0.5872165779996976,correct,1
Block 3: Monocular_Standard,17,0.19,right,right,0.7183795610003472,correct,1
Block 3: Monocular_Standard,18,-0.13999999999999996,left,left,0.5771306840001671,correct,1
Block 3: Monocular_Standard,19,-0.13999999999999996,left,left,0.8299370560002899,correct,1
Block 3: Monocular_Standard,20,0.19,right,right,0.6780914159999156,correct,1
Block 3: Monocular_Standard,21,0.18,right,right,0.6070600170000944,correct,1
Block 3: Monocular_Standard,22,-0.12999999999999995,left,left,0.6885205359999418,correct,1
Block 3: Monocular_Standard,23,-0.12999999999999995,left,left,3.048118349000106,correct,1
Block 3: Monocular_Standard,24,0.18,right,right,0.6683523619999505,correct,1
Block 3: Monocular_Standard,25,-0.11999999999999995,left,left,0.7381504029999633,correct,1
Block 3: Monocular_Standard,26,0.16999999999999998,right,right,0.6680728470000759,correct,1
Block 3: Monocular_Standard,27,-0.11999999999999995,left,left,0.5667630640000425,correct,1
Block 3: Monocular_Standard,28,0.16999999999999998,right,right,0.5962353169998096,correct,1
Block 3: Monocular_Standard,29,0.15999999999999998,right,right,0.7384387309998601,correct,1
Block 3: Monocular_Standard,30,0.15999999999999998,right,right,0.8503319659998851,correct,1
Block 3: Monocular_Standard,31,-0.10999999999999996,left,left,0.6375345500000549,correct,1
Block 3: Monocular_Standard,32,0.14999999999999997,right,right,0.6072543600002973,correct,1
Block 3: Monocular_Standard,33,-0.10999999999999996,left,left,0.49663449000036053,correct,1
Block 3: Monocular_Standard,34,0.14999999999999997,right,right,0.45562523399985366,correct,1
Block 3: Monocular_Standard,35,0.13999999999999996,right,right,0.6472588029996587,correct,1
Block 3: Monocular_Standard,36,-0.09999999999999996,left,left,0.3436892820000139,correct,1
Block 3: Monocular_Standard,37,0.13999999999999996,right,right,0.48513290900018546,correct,1
Block 3: Monocular_Standard,38,0.12999999999999995,right,right,0.6273949700002959,correct,1
Block 3: Monocular_Standard,39,-0.09999999999999996,left,left,0.4755507039999429,correct,1
Block 3: Monocular_Standard,40,-0.08999999999999997,left,left,0.6376044300000103,correct,1
Block 3: Monocular_Standard,41,0.12999999999999995,right,right,0.4953090899998642,correct,1
Block 3: Monocular_Standard,42,0.11999999999999995,right,right,0.5057959430000665,correct,1
Block 3: Monocular_Standard,43,-0.08999999999999997,left,left,0.6070099920002576,correct,1
Block 3: Monocular_Standard,44,-0.07999999999999997,left,left,1.427119739000318,correct,1
Block 3: Monocular_Standard,45,0.11999999999999995,right,right,0.5666954849998547,correct,1
Block 3: Monocular_Standard,46,0.10999999999999996,right,right,0.5261916419999579,correct,1
Block 3: Monocular_Standard,47,-0.07999999999999997,left,left,0.5560418080003728,correct,1
Block 3: Monocular_Standard,48,0.10999999999999996,right,right,0.6781005190000542,correct,1
Block 3: Monocular_Standard,49,0.09999999999999996,left,right,1.0636721350001608,false,0
Block 3: Monocular_Standard,50,-0.06999999999999998,left,left,0.6885082139997394,correct,1
Block 3: Monocular_Standard,51,0.10999999999999996,right,right,0.5056594489997224,correct,1
Block 3: Monocular_Standard,52,0.10999999999999996,right,right,0.7488589360000333,correct,1
Block 3: Monocular_Standard,53,0.09999999999999996,right,right,0.5058287359997848,correct,1
Block 3: Monocular_Standard,54,0.09999999999999996,right,right,0.44491578100041806,correct,1
Block 3: Monocular_Standard,55,-0.06999999999999998,left,left,0.40523039199979394,correct,1
Block 3: Monocular_Standard,56,0.08999999999999997,right,right,0.830057664999913,correct,1
Block 3: Monocular_Standard,57,0.08999999999999997,right,right,0.5055859240001155,correct,1
Block 3: Monocular_Standard,58,0.07999999999999997,right,right,0.6678462379995835,correct,1
Block 3: Monocular_Standard,59,0.07999999999999997,right,right,0.546453419000045,correct,1
Block 3: Monocular_Standard,60,0.06999999999999998,right,right,0.6885026109998762,correct,1
Block 3: Monocular_Standard,61,0.06999999999999998,right,right,0.6075654020000911,correct,1
Block 3: Monocular_Standard,62,-0.05999999999999998,left,left,0.4549933170001168,correct,1
Block 3: Monocular_Standard,63,-0.05999999999999998,left,left,0.9206094290002511,correct,1
Block 3: Monocular_Standard,64,0.05999999999999998,right,right,0.6580004289999124,correct,1
Block 3: Monocular_Standard,65,-0.049999999999999975,left,left,0.46537755800000014,correct,1
Block 3: Monocular_Standard,66,-0.049999999999999975,left,left,0.48572132900017095,correct,1
Block 3: Monocular_Standard,67,0.05999999999999998,right,right,0.5564858330003517,correct,1
Block 3: Monocular_Standard,68,-0.03999999999999997,right,left,1.0525633679999373,false,0
Block 3: Monocular_Standard,69,0.049999999999999975,left,right,0.8400969570002417,false,0
Block 3: Monocular_Standard,70,-0.049999999999999975,left,left,0.5771633550002662,correct,1
Block 3: Monocular_Standard,71,-0.049999999999999975,left,left,2.6034147029999986,correct,1
Block 3: Monocular_Standard,72,-0.03999999999999997,left,left,0.5470837570001095,correct,1
Block 3: Monocular_Standard,73,0.05999999999999998,left,right,1.539059121000264,false,0
Block 3: Monocular_Standard,74,-0.03999999999999997,left,left,0.5057697590000316,correct,1
Block 3: Monocular_Standard,75,0.06999999999999998,right,right,0.5972198409999692,correct,1
Block 3: Monocular_Standard,76,-0.02999999999999997,left,left,1.0128043689996957,correct,1
Block 3: Monocular_Standard,77,-0.02999999999999997,right,left,1.1041404379998312,false,0
Block 3: Monocular_Standard,78,-0.03999999999999997,left,left,0.5364309750002576,correct,1
Block 3: Monocular_Standard,79,0.06999999999999998,right,right,0.5256378869999025,correct,1
Block 3: Monocular_Standard,80,0.05999999999999998,right,right,0.7692432290000397,correct,1
Block 3: Monocular_Standard,81,-0.03999999999999997,left,left,0.880073750000065,correct,1
Block 3: Monocular_Standard,82,-0.02999999999999997,left,left,1.0629406680000102,correct,1
Block 3: Monocular_Standard,83,-0.02999999999999997,left,left,0.637214442000186,correct,1
Block 3: Monocular_Standard,84,0.05999999999999998,right,right,7.047536218000005,correct,1
Block 3: Monocular_Standard,85,-0.01999999999999997,left,left,0.6984517990003951,correct,1
Block 3: Monocular_Standard,86,-0.01999999999999997,left,left,0.4553035980002278,correct,1
Block 3: Monocular_Standard,87,-0.009999999999999969,left,left,0.7589209739999205,correct,1
Block 3: Monocular_Standard,88,0.049999999999999975,right,right,0.4551549790003264,correct,1
Block 3: Monocular_Standard,89,-0.009999999999999969,right,left,0.6270862249998572,false,0
Block 3: Monocular_Standard,90,0.049999999999999975,right,right,0.6681853159998354,correct,1
Block 3: Monocular_Standard,91,0.03999999999999997,right,right,0.7793646649997754,correct,1
Block 3: Monocular_Standard,92,0.03999999999999997,right,right,0.7083639780003068,correct,1
Block 3: Monocular_Standard,93,0.02999999999999997,right,right,0.4652307300002576,correct,1
Block 3: Monocular_Standard,94,-0.01999999999999997,right,left,0.5969503490000534,false,0
Block 3: Monocular_Standard,95,0.02999999999999997,left,right,0.6174906269998246,false,0
Block 3: Monocular_Standard,96,0.03999999999999997,right,right,0.6073150570000507,correct,1
Block 3: Monocular_Standard,97,0.03999999999999997,right,right,0.6679080620001514,correct,1
Block 3: Monocular_Standard,98,0.02999999999999997,right,right,0.7181288099995982,correct,1
Block 3: Monocular_Standard,99,-0.02999999999999997,left,left,0.9213602479999281,correct,1
Block 3: Monocular_Standard,100,0.02999999999999997,right,right,0.46510042399995655,correct,1
Block 3: Monocular_Standard,101,0.01999999999999997,right,right,0.7694316580000304,correct,1
Block 3: Monocular_Standard,102,-0.02999999999999997,left,left,0.5970830809997096,correct,1
Block 3: Monocular_Standard,103,0.01999999999999997,right,right,0.6882111169998097,correct,1
Block 3: Monocular_Standard,104,-0.01999999999999997,right,left,0.7797828580000896,false,0
Block 3: Monocular_Standard,105,-0.02999999999999997,left,left,0.43577498299964645,correct,1
Block 3: Monocular_Standard,106,-0.02999999999999997,left,left,1.397227724000004,correct,1
Block 3: Monocular_Standard,107,-0.01999999999999997,right,left,0.616926426000191,false,0
Block 3: Monocular_Standard,108,0.009999999999999969,left,right,0.414711853999961,false,0
Block 3: Monocular_Standard,109,-0.02999999999999997,left,left,1.0622115940000185,correct,1
Block 3: Monocular_Standard,110,0.01999999999999997,left,right,0.6798288729996784,false,0
Block 3: Monocular_Standard,111,0.02999999999999997,right,right,0.6780621289999544,correct,1
Block 3: Monocular_Standard,112,-0.02999999999999997,left,left,0.5359244029996262,correct,1
Block 3: Monocular_Standard,113,-0.01999999999999997,left,left,0.5364240610001616,correct,1
Block 3: Monocular_Standard,114,-0.01999999999999997,left,left,0.5868583159999616,correct,1
Block 3: Monocular_Standard,115,0.02999999999999997,right,right,0.7588321950001955,correct,1
Block 3: Monocular_Standard,116,-0.009999999999999969,left,left,0.48558872500007055,correct,1
Block 3: Monocular_Standard,117,0.01999999999999997,left,right,0.9713054369999554,false,0
Block 3: Monocular_Standard,118,0.02999999999999997,right,right,0.8397608029999901,correct,1
Block 3: Monocular_Standard,119,-0.009999999999999969,left,left,0.6576614269997663,correct,1
Block 4: Monocular_Crowded,0,-0.2,left,left,1.3570245539999632,correct,1
Block 4: Monocular_Crowded,1,-0.2,left,left,0.6388604260000648,correct,1
Block 4: Monocular_Crowded,2,0.2,right,right,0.4956194860001233,correct,1
Block 4: Monocular_Crowded,3,-0.19,right,left,0.7181233389997033,false,0
Block 4: Monocular_Crowded,4,0.2,right,right,1.7106612039997344,correct,1
Block 4: Monocular_Crowded,5,0.19,right,right,0.7088158530000328,correct,1
Block 4: Monocular_Crowded,6,0.19,right,right,0.5969388109997453,correct,1
Block 4: Monocular_Crowded,7,-0.2,right,left,1.225021826000102,false,0
Block 4: Monocular_Crowded,8,0.18,right,right,0.7787740570001915,correct,1
Block 4: Monocular_Crowded,9,0.18,right,right,0.6981989119999525,correct,1
Block 4: Monocular_Crowded,10,-0.21000000000000002,right,left,1.0724638379997486,false,0
Block 4: Monocular_Crowded,11,0.16999999999999998,right,right,1.8114819239999633,correct,1
Block 4: Monocular_Crowded,12,0.16999999999999998,right,right,0.8197635520000404,correct,1
Block 4: Monocular_Crowded,13,-0.22000000000000003,left,left,0.5265858589996242,correct,1
Block 4: Monocular_Crowded,14,0.15999999999999998,right,right,0.5355334739997488,correct,1
Block 4: Monocular_Crowded,15,-0.22000000000000003,left,left,0.4654114350000782,correct,1
Block 4: Monocular_Crowded,16,-0.21000000000000002,left,left,0.6274488869999004,correct,1
Block 4: Monocular_Crowded,17,0.15999999999999998,right,right,0.45503576200007956,correct,1
Block 4: Monocular_Crowded,18,-0.21000000000000002,left,left,0.48505087399962576,correct,1
Block 4: Monocular_Crowded,19,-0.2,right,left,0.8299516150000272,false,0
Block 4: Monocular_Crowded,20,0.14999999999999997,right,right,0.748721716000091,correct,1
Block 4: Monocular_Crowded,21,0.14999999999999997,right,right,0.5969077009999637,correct,1
Block 4: Monocular_Crowded,22,0.13999999999999996,right,right,0.5866193749998274,correct,1
Block 4: Monocular_Crowded,23,0.13999999999999996,right,right,0.7793813319999572,correct,1
Block 4: Monocular_Crowded,24,-0.21000000000000002,left,left,0.8099523580003734,correct,1
Block 4: Monocular_Crowded,25,-0.21000000000000002,left,left,0.5974222609997923,correct,1
Block 4: Monocular_Crowded,26,-0.2,left,left,0.7490899519998493,correct,1
Block 4: Monocular_Crowded,27,0.12999999999999995,right,right,0.5662202430003163,correct,1
Block 4: Monocular_Crowded,28,0.12999999999999995,right,right,0.7184866690004128,correct,1
Block 4: Monocular_Crowded,29,0.11999999999999995,right,right,1.0013562519998231,correct,1
Block 4: Monocular_Crowded,30,0.11999999999999995,right,right,2.2984148780001306,correct,1
Block 4: Monocular_Crowded,31,-0.2,left,left,0.425101197999993,correct,1
Block 4: Monocular_Crowded,32,0.10999999999999996,right,right,0.6067911350000941,correct,1
Block 4: Monocular_Crowded,33,0.10999999999999996,right,right,0.6476384589996087,correct,1
Block 4: Monocular_Crowded,34,-0.19,left,left,0.6879465160000109,correct,1
Block 4: Monocular_Crowded,35,-0.19,left,left,0.9415171379996536,correct,1
Block 4: Monocular_Crowded,36,0.09999999999999996,right,right,0.5666706460001478,correct,1
Block 4: Monocular_Crowded,37,0.09999999999999996,right,right,0.9514916490002179,correct,1
Block 4: Monocular_Crowded,38,0.08999999999999997,right,right,1.1956934520003415,correct,1
Block 4: Monocular_Crowded,39,-0.18,left,left,0.6575399769999422,correct,1
Block 4: Monocular_Crowded,40,0.08999999999999997,right,right,1.124460191000253,correct,1
Block 4: Monocular_Crowded,41,0.07999999999999997,right,right,0.7483282200000758,correct,1
Block 4: Monocular_Crowded,42,-0.18,left,left,0.5878383949998351,correct,1
Block 4: Monocular_Crowded,43,-0.16999999999999998,left,left,0.45505669900012435,correct,1
Block 4: Monocular_Crowded,44,0.07999999999999997,right,right,1.2654582879999907,correct,1
Block 4: Monocular_Crowded,45,-0.16999999999999998,left,left,0.4755753729996286,correct,1
Block 4: Monocular_Crowded,46,0.06999999999999998,right,right,0.5357488089998697,correct,1
Block 4: Monocular_Crowded,47,-0.15999999999999998,left,left,0.4956195689997003,correct,1
Block 4: Monocular_Crowded,48,-0.15999999999999998,left,left,0.5671894429997337,correct,1
Block 4: Monocular_Crowded,49,-0.14999999999999997,left,left,0.6577308670002822,correct,1
Block 4: Monocular_Crowded,50,-0.14999999999999997,left,left,0.5968901910000568,correct,1
Block 4: Monocular_Crowded,51,0.06999999999999998,right,right,0.6072516489998634,correct,1
Block 4: Monocular_Crowded,52,0.05999999999999998,left,right,0.5967000269997698,false,0
Block 4: Monocular_Crowded,53,-0.13999999999999996,left,left,0.4248405220000677,correct,1
Block 4: Monocular_Crowded,54,-0.13999999999999996,left,left,0.57708519300013,correct,1
Block 4: Monocular_Crowded,55,0.06999999999999998,right,right,0.6481681459999891,correct,1
Block 4: Monocular_Crowded,56,0.06999999999999998,right,right,1.2757813389998773,correct,1
Block 4: Monocular_Crowded,57,-0.12999999999999995,left,left,0.6674684310000885,correct,1
Block 4: Monocular_Crowded,58,-0.12999999999999995,left,left,0.658437787999901,correct,1
Block 4: Monocular_Crowded,59,0.05999999999999998,right,right,1.143827414000043,correct,1
Block 4: Monocular_Crowded,60,-0.11999999999999995,left,left,0.5774486790000992,correct,1
Block 4: Monocular_Crowded,61,-0.11999999999999995,left,left,0.5760236780001833,correct,1
Block 4: Monocular_Crowded,62,0.05999999999999998,right,right,0.9920725899996796,correct,1
Block 4: Monocular_Crowded,63,-0.10999999999999996,left,left,0.4958851460000915,correct,1
Block 4: Monocular_Crowded,64,0.049999999999999975,right,right,0.9616514660001485,correct,1
Block 4: Monocular_Crowded,65,-0.10999999999999996,left,left,0.4450070150001011,correct,1
Block 4: Monocular_Crowded,66,-0.09999999999999996,left,left,0.26273053899967636,correct,1
Block 4: Monocular_Crowded,67,-0.09999999999999996,left,left,0.6070992439999827,correct,1
Block 4: Monocular_Crowded,68,0.049999999999999975,right,right,1.720537664999938,correct,1
Block 4: Monocular_Crowded,69,0.03999999999999997,left,right,1.0938437980003073,false,0
Block 4: Monocular_Crowded,70,0.049999999999999975,right,right,0.5362673069998891,correct,1
Block 4: Monocular_Crowded,71,0.049999999999999975,right,right,0.5361571059997914,correct,1
Block 4: Monocular_Crowded,72,0.03999999999999997,right,right,0.7183612670000912,correct,1
Block 4: Monocular_Crowded,73,0.03999999999999997,right,right,0.7286269639998864,correct,1
Block 4: Monocular_Crowded,74,0.02999999999999997,right,right,0.6681324189999032,correct,1
Block 4: Monocular_Crowded,75,0.02999999999999997,right,right,0.860520397000073,correct,1
Block 4: Monocular_Crowded,76,-0.08999999999999997,left,left,0.5062711020000279,correct,1
Block 4: Monocular_Crowded,77,0.01999999999999997,left,right,0.6272581969997191,false,0
Block 4: Monocular_Crowded,78,-0.08999999999999997,left,left,0.7587298500002362,correct,1
Block 4: Monocular_Crowded,79,-0.07999999999999997,left,left,0.6677590159997635,correct,1
Block 4: Monocular_Crowded,80,-0.07999999999999997,left,left,0.9921438480000688,correct,1
Block 4: Monocular_Crowded,81,0.02999999999999997,right,right,0.961274317999596,correct,1
Block 4: Monocular_Crowded,82,0.02999999999999997,left,right,1.1434875509999074,false,0
Block 4: Monocular_Crowded,83,-0.06999999999999998,left,left,0.4857409659998666,correct,1
Block 4: Monocular_Crowded,84,-0.06999999999999998,left,left,0.4959315010000864,correct,1
Block 4: Monocular_Crowded,85,-0.05999999999999998,right,left,0.7487083519999942,false,0
Block 4: Monocular_Crowded,86,-0.06999999999999998,left,left,0.6780582569999751,correct,1
Block 4: Monocular_Crowded,87,0.03999999999999997,right,right,1.2956142580001142,correct,1
Block 4: Monocular_Crowded,88,0.03999999999999997,left,right,0.7488068030002069,false,0
Block 4: Monocular_Crowded,89,-0.06999999999999998,right,left,1.3871163049998358,false,0
Block 4: Monocular_Crowded,90,0.049999999999999975,left,right,0.5667010550000668,false,0
Block 4: Monocular_Crowded,91,-0.07999999999999997,left,left,0.5869528250000258,correct,1
Block 4: Monocular_Crowded,92,-0.07999999999999997,right,left,1.345881436000127,false,0
Block 4: Monocular_Crowded,93,-0.08999999999999997,left,left,0.6269960399999945,correct,1
Block 4: Monocular_Crowded,94,-0.08999999999999997,left,left,0.9006043379999937,correct,1
Block 4: Monocular_Crowded,95,0.05999999999999998,right,right,1.0019590789997892,correct,1
Block 4: Monocular_Crowded,96,0.05999999999999998,right,right,0.8702833679999458,correct,1
Block 4: Monocular_Crowded,97,-0.07999999999999997,left,left,0.748984432999805,correct,1
Block 4: Monocular_Crowded,98,-0.07999999999999997,right,left,1.0023030649999782,false,0
Block 4: Monocular_Crowded,99,0.049999999999999975,right,right,1.5288436199998614,correct,1
Block 4: Monocular_Crowded,100,0.049999999999999975,right,right,1.4084576360000938,correct,1
Block 4: Monocular_Crowded,101,-0.08999999999999997,left,left,0.728700095000022,correct,1
Block 4: Monocular_Crowded,102,0.03999999999999997,right,right,1.4169113070001913,correct,1
Block 4: Monocular_Crowded,103,-0.08999999999999997,left,left,0.5461811469999702,correct,1
Block 4: Monocular_Crowded,104,0.03999999999999997,right,right,0.871546171999853,correct,1
Block 4: Monocular_Crowded,105,0.02999999999999997,right,right,1.1849054479998813,correct,1
Block 4: Monocular_Crowded,106,-0.07999999999999997,right,left,0.9713096939999559,false,0
Block 4: Monocular_Crowded,107,-0.08999999999999997,left,left,0.6676475889998983,correct,1
Block 4: Monocular_Crowded,108,0.02999999999999997,left,right,1.0223176780000358,false,0
Block 4: Monocular_Crowded,109,0.03999999999999997,right,right,0.5867706389999512,correct,1
Block 4: Monocular_Crowded,110,-0.08999999999999997,right,left,0.9414787720002096,false,0
Block 4: Monocular_Crowded,111,0.03999999999999997,left,right,0.647701952999796,false,0
Block 4: Monocular_Crowded,112,-0.09999999999999996,right,left,0.546463132000099,false,0
Block 4: Monocular_Crowded,113,-0.10999999999999996,left,left,0.9307727579998755,correct,1
Block 4: Monocular_Crowded,114,0.049999999999999975,left,right,1.082880828999805,false,0
Block 4: Monocular_Crowded,115,-0.10999999999999996,left,left,0.6880350339997676,correct,1
Block 4: Monocular_Crowded,116,-0.09999999999999996,left,left,0.9317843449998691,correct,1
Block 4: Monocular_Crowded,117,-0.09999999999999996,right,left,1.0434286370000336,false,0
Block 4: Monocular_Crowded,118,0.05999999999999998,left,right,0.6275032809999175,false,0
Block 4: Monocular_Crowded,119,-0.10999999999999996,right,left,0.7084419500001786,false,0
